relative_time,AccX,AccY,AccZ
0,-0.03457809448242188,4.1769140625,8.988059234619142
38,-0.09654922485351564,3.8935533142089844,9.167236633300782
104,-0.2832110595703125,4.083807678222657,8.899742889404298
171,-0.2760260009765625,4.061653747558594,9.066645812988282
238,-0.11181747436523438,4.292922821044922,8.92713592529297
306,-0.0844244384765625,4.3313928222656255,8.844208374023438
372,-0.20731887817382813,4.264032897949219,8.746461639404297
438,-0.04296066284179688,4.202211456298828,8.630752258300781
505,0.13711486816406251,4.132905578613282,8.664282531738282
572,-0.12708572387695313,4.072131958007812,9.001830596923828
638,-0.18830841064453127,3.9302270507812502,9.066496124267578
705,-0.22378463745117189,3.975732421875,9.112151184082032
772,-0.32871643066406253,3.9805224609375003,9.024134216308594
838,-0.28336074829101565,4.114493865966797,9.232051849365234
905,-0.27138565063476566,4.18844009399414,9.088200988769533
972,-0.36643798828125,4.322710876464844,8.686137084960938
1038,-0.348475341796875,4.305496673583985,8.898246002197267
1105,-0.0209564208984375,4.480931854248047,8.603957977294922
1172,-0.067060546875,4.138743438720703,8.697962493896485
1238,-0.229921875,4.1270677185058595,8.693322143554688
1305,-0.20746856689453125,4.122726745605469,8.736881561279297
1372,-0.19893630981445312,3.966002655029297,8.735833740234375
1438,-0.31853759765625,4.038751373291015,9.097930755615234
1505,-0.3465293884277344,4.17451904296875,8.919202423095703
1572,-0.4471202087402344,4.205354919433594,8.944799194335937
1638,-0.4343966674804688,4.21283935546875,8.949140167236328
1705,-0.1824705505371094,4.439168701171875,8.904083862304688
1772,-0.1926493835449219,4.3752516174316405,8.745563507080078
1838,-0.3381468200683594,4.324956207275391,8.497529296875001
1905,-0.16675323486328125,4.123774566650391,8.948990478515626
1972,-0.09789642333984376,4.094136199951172,8.68239486694336
2038,-0.250279541015625,3.8838235473632814,9.104666748046876
2105,-0.3730242919921875,4.136498107910157,8.941805419921875
2172,-0.40206390380859375,4.163292388916016,8.755592651367188
2238,-0.41987686157226567,4.32345932006836,8.795260162353516
2305,-0.28261230468750004,4.525389404296876,8.959618377685548
2372,-0.26884094238281253,4.550237731933594,8.640631713867188
2438,-0.2442919921875,4.398752746582032,8.435857543945312
2505,-0.16061599731445314,4.279600524902344,8.945248260498047
2572,-0.001197509765625,4.22720947265625,8.690777435302735
2638,-0.2513273620605469,3.963308258056641,9.004824371337891
2705,-0.05822891235351563,4.015100555419922,8.907826080322266
2772,-0.06256988525390625,3.9338195800781253,8.894803161621095
2838,-0.20387603759765627,3.868704986572266,8.809031524658204
2905,-0.2561174011230469,4.202361145019531,9.401649169921875
2972,-0.10388397216796875,4.38049072265625,8.934171295166015
3038,-0.1922003173828125,4.339925079345703,8.731343078613282
3105,-0.38455032348632817,4.7874943542480475,8.83088607788086
3172,-0.12888198852539062,4.826862487792969,8.225694580078125
3238,-0.3426374816894531,4.555327148437501,8.729247436523439
3305,0.47301635742187503,4.506528625488281,9.86987548828125
3372,-0.42541534423828126,4.80964828491211,8.390352172851562
3438,-0.7857160949707032,5.012476501464844,7.601791992187501
3505,-1.0723699951171874,5.503305816650391,8.438851318359376
3572,-0.8940907287597657,5.630391540527344,8.216563568115236
3638,-0.7259902954101562,5.424120483398438,7.929310913085938
3705,-0.5254074096679687,5.496420135498047,8.04202651977539
3772,-0.05164260864257813,5.614524536132813,8.252189483642578
3838,-0.033679962158203125,5.418881378173828,8.190368041992189
3905,-0.21944366455078126,5.395230560302735,8.139473876953126
3972,-0.18291961669921875,5.442382507324219,8.08798095703125
4038,-0.1502874755859375,5.371130676269532,7.946974182128907
4105,-0.41508682250976564,5.468128967285157,8.351133728027344
4172,-0.17244140625,5.5006114196777345,8.164022827148438
4238,-0.10403366088867189,5.4021162414550785,7.923622741699219
4305,0.06840774536132813,5.4670811462402344,8.085735626220703
4372,0.30296997070312504,5.658982086181641,8.214168548583984
4438,0.3177891540527344,5.632038116455078,8.068222045898438
4505,0.12543914794921876,5.457052001953126,8.01613037109375
4572,0.16076568603515626,5.541626129150391,8.024063873291016
4638,-0.017214202880859376,5.517975311279297,7.970026245117188
4705,-0.33260833740234375,5.335504760742188,8.471932525634767
4772,-0.25626708984375,5.394781494140625,8.118816833496094
4838,-0.15537689208984376,5.406606903076172,7.928263092041016
4905,-0.20252883911132813,5.280718688964844,8.147257690429688
4971,-0.22228775024414063,5.3703822326660156,8.407865753173828
5038,0.09789642333984376,5.409750366210938,8.380472717285157
5105,-0.1215472412109375,5.205275573730469,8.259075164794922
5172,-0.045205993652343755,5.186115417480469,8.304580535888672
5238,0.10059082031250001,5.188211059570313,8.178093566894532
5305,-0.37856277465820315,5.113217010498047,8.461903381347657
5372,-0.3960763549804688,5.0338819885253905,8.476273498535157
5438,-0.3860472106933594,5.047204284667969,8.229586486816407
5505,-0.4836442565917969,4.988526306152344,8.336464233398438
5572,-0.5548960876464843,5.0341813659667976,8.630303192138673
5638,-0.24084915161132814,5.153183898925781,8.332123260498047
5705,-0.1922003173828125,4.959037628173828,8.256829833984375
5772,-0.13157638549804687,5.007686462402344,8.424780578613282
5838,0.13936019897460938,5.1662068176269536,8.339158630371093
5905,-0.03457809448242188,5.06112533569336,8.393795013427734
5972,-0.4333488464355469,4.895120544433594,8.543184356689453
6038,-0.3008743286132813,5.031486968994141,8.266858978271484
6105,-0.28186386108398437,4.920417938232422,8.358767852783204
6172,-0.7170089721679688,4.930596771240235,8.908873901367189
6238,-0.4022135925292969,5.008883972167969,8.40412353515625
6305,-0.3784130859375,4.909939727783203,8.23931625366211
6372,-0.24099884033203126,4.914729766845704,8.428971862792968
6438,-0.06002517700195313,5.094805297851563,8.519832916259766
6505,0.13457015991210938,5.076094207763672,8.50995346069336
6572,0.012424163818359375,4.895719299316407,8.42133773803711
6638,0.03577560424804688,4.916226654052735,8.4256787109375
6704,0.03143463134765625,4.861141204833984,8.330177307128906
6771,-0.3062631225585938,4.80725326538086,8.793014831542969
6838,-0.2746788024902344,4.80725326538086,8.353229370117187
6905,-0.2597099304199219,4.825215911865235,8.362360382080078
6971,-0.4225712585449219,4.769082641601563,8.101452941894532
7038,-0.5730084228515625,4.912035369873047,8.70784194946289
7105,-0.027542724609375003,5.051994323730469,9.159303131103517
7172,0.29413833618164065,4.854854278564454,8.45531707763672
7244,0.7852670288085938,4.259242858886719,8.455616455078125
7306,1.1018586730957032,4.165088653564453,9.121431884765625
7373,0.9623487854003907,4.202061767578125,8.901688842773439
7439,0.05358856201171875,4.125121765136719,8.617130584716797
7505,0.02305206298828125,4.530179443359375,8.409212951660157
7572,-0.415535888671875,4.710704040527344,8.237669677734376
7638,-0.14609619140625002,4.661456451416016,8.721763000488282
7705,0.1454974365234375,4.517306213378906,8.914861450195312
7772,0.06870712280273437,4.459226989746094,8.550968170166016
7839,0.18052459716796876,4.570296020507813,8.587641906738282
7906,0.32781829833984377,4.697082366943359,8.745713195800782
7973,0.28291168212890627,4.698728942871094,8.687484283447265
8039,-0.05673202514648438,4.563260650634766,8.640631713867188
8106,0.10298583984375001,4.596341857910157,8.670569458007813
8173,0.11181747436523438,4.489314422607422,8.378975830078126
8238,-0.3769161987304688,4.461322631835937,8.97563507080078
8305,-0.31180160522460937,4.608017578125001,8.710386657714844
8372,-0.178428955078125,4.64394287109375,8.39304656982422
8438,-0.23905288696289065,4.610262908935547,8.655001831054689
8505,-0.233514404296875,4.81443832397461,8.839118957519531
8572,0.2544708251953125,4.758305053710938,8.52956268310547
8638,0.1483415222167969,4.667593688964844,8.380323028564453
8705,0.026195526123046875,4.706063690185547,8.769513702392578
8772,0.10328521728515626,4.7963259887695315,8.445886688232422
8838,-0.024698638916015626,4.735702056884766,8.61922622680664
8905,-0.036374359130859374,4.571643218994141,8.510851593017579
8972,-0.23740631103515628,4.595294036865234,8.585695953369141
9038,-0.398770751953125,4.650379486083985,8.51234848022461
9105,-0.4785548400878907,4.7363008117675784,8.791817321777344
9172,-0.21001327514648438,4.822072448730469,8.483907623291016
9238,-0.27333160400390627,4.647086334228516,8.391549682617187
9305,-0.02544708251953125,4.706063690185547,8.400830383300782
9372,0.030237121582031252,4.688550109863281,8.530760192871094
9438,-0.6671626281738282,4.5568240356445315,8.891659698486329
9505,-0.9759704589843751,4.678820343017579,8.756490783691406
9572,-1.2699591064453126,4.799469451904297,8.437055053710939
9638,-1.3894107055664062,4.812192993164063,8.264314270019531
9705,-1.9104771423339846,4.817132720947266,8.783883819580078
9772,-1.713337097167969,4.8192283630371096,8.457562408447266
9838,-1.6025674438476563,4.698878631591797,8.231532440185548
9905,-1.5450869750976564,4.68031723022461,8.397237854003906
9971,-1.4184503173828125,4.8313531494140625,8.779093780517579
10038,-1.1072474670410157,4.860093383789063,8.37583236694336
10105,-1.799857177734375,5.03672607421875,7.315886535644531
10197,-1.3751902770996094,4.716392211914063,8.565338287353516
10239,-1.1713142395019531,4.627028045654297,8.155490570068359
10305,-1.3663586425781251,4.58212142944336,8.791368255615234
10372,-1.230890350341797,4.452490997314453,8.688831481933594
10439,-1.3001962280273438,4.565655670166016,8.434061279296875
10505,-1.2014016723632812,4.5373645019531255,8.479866027832031
10572,-1.1337423706054688,4.5197012329101565,9.011710052490235
10639,-0.5653742980957032,4.595144348144531,8.637039184570312
10705,-0.46253814697265627,4.532873840332032,8.526419219970704
10772,-0.40071670532226566,4.614903259277344,8.452323303222657
10839,-0.015717315673828124,4.752467193603516,8.577912139892579
10905,-0.11391311645507814,4.60846664428711,8.68763397216797
10972,-0.4090992736816406,4.587959289550781,8.743617553710937
11038,-0.20073257446289064,4.630470886230469,8.446485443115234
11105,-0.23620880126953125,4.4897634887695315,8.50276840209961
11172,-0.5650749206542969,4.532424774169922,8.885372772216797
11239,-0.47196853637695313,4.612059173583985,8.63254852294922
11305,-0.5418731689453126,4.606221313476563,8.553662567138673
11372,-0.30716125488281254,4.5268862915039065,8.640931091308595
11439,-0.21420455932617188,4.661306762695313,8.887169036865235
11505,-0.023201751708984378,4.642895050048828,8.685388641357422
11572,0.00029937744140625,4.4334805297851565,8.51519256591797
11639,0.006735992431640626,4.466412048339844,8.71068603515625
11705,-0.0892144775390625,4.661905517578125,8.629554748535156
11772,-0.29683273315429687,4.359983367919922,8.76622055053711
11839,-0.26958938598632814,4.350103912353516,8.603059844970703
11905,-0.33141082763671875,4.5303291320800785,8.530610504150392
11972,-0.23426284790039065,4.348008270263672,8.785979461669923
12039,-0.27812164306640624,4.568350067138672,8.91186767578125
12105,-0.09550140380859376,4.7910868835449225,8.575966186523438
12172,-0.20148101806640625,4.638554077148438,8.64886459350586
12238,-0.29713211059570316,4.656666412353516,8.717721405029298
12305,-0.011526031494140625,4.811145172119141,8.751401367187501
12372,-0.030686187744140628,4.783153381347656,8.405770111083985
12439,-0.12918136596679688,4.531227264404297,8.594527587890626
12505,-0.29309051513671874,4.5319757080078125,8.53345458984375
12572,-0.23052062988281252,4.51940185546875,8.429420928955079
12639,-0.7032376098632813,4.464915161132812,8.847800903320312
12705,-0.4409829711914063,4.6993276977539065,8.58419906616211
12772,-0.5626799011230469,4.861739959716797,8.518934783935547
12839,-0.3418890380859375,4.764292602539062,8.592282257080079
12905,-0.28186386108398437,5.204227752685547,8.654403076171876
12971,-0.02664459228515625,4.934937744140625,8.565637664794922
13039,-0.035326538085937505,4.4493475341796875,8.674611053466798
13105,-0.18157241821289063,4.644391937255859,8.436605987548829
13172,-0.300574951171875,4.820874938964844,8.420738983154298
13239,-0.6960525512695312,4.228856048583984,8.406219177246093
13305,-0.7402107238769532,4.869823150634766,8.992549896240234
13372,-0.7698490905761719,4.5303291320800785,8.504864044189453
13439,-0.34667907714843754,4.866380310058594,8.610693969726563
13505,-0.47181884765625004,4.757706298828126,8.991053009033203
13572,0.27153533935546875,5.0341813659667976,8.369844818115235
13639,-0.34129028320312504,4.612358551025391,8.744066619873047
13705,0.027991790771484375,4.56056625366211,8.513545989990234
13772,-0.1932481384277344,4.825365600585938,8.64886459350586
13839,-0.16091537475585938,3.966002655029297,8.617579650878907
13905,-0.4842430114746094,4.6536726379394535,8.665480041503907
13972,-0.7876620483398438,4.522844696044922,8.525670776367187
14039,-0.5876779174804688,4.71384750366211,8.506360931396484
14105,-0.7301815795898438,4.528083801269531,8.93477005004883
14172,-0.44158172607421875,4.757257232666016,8.580157470703126
14238,-0.8237370300292969,5.003495178222656,8.516390075683594
14305,-0.5896238708496094,4.791685638427735,8.57940902709961
14372,-0.34682876586914063,5.213209075927734,8.574768676757813
14439,-0.21076171875000002,4.843777313232422,8.502918090820312
14505,-0.15687377929687502,4.697082366943359,8.37538330078125
14572,-0.3411405944824219,4.8491661071777346,8.544830932617188
14639,-0.010927276611328125,4.808151397705078,8.477021942138672
14705,-0.17483642578125,4.474944305419922,8.597521362304688
14772,-0.26075775146484376,4.660408630371094,8.428672485351562
14839,-0.3059637451171875,4.7364505004882815,8.494984588623048
14905,-0.32946487426757814,4.781955871582031,8.275091857910157
14972,-0.5492079162597656,4.852459259033203,8.581205291748047
15039,-0.42421783447265626,4.970863037109376,8.382418670654298
15105,-0.7045848083496095,5.137616271972656,8.552465057373047
15172,-0.4351451110839844,4.83075439453125,8.404422912597656
15239,-0.5287005615234375,5.072202301025391,8.626560974121094
15305,-0.20911514282226565,4.815935211181641,8.653055877685548
15372,-0.1980381774902344,5.209317169189453,8.31984878540039
15439,-0.08337661743164063,4.520599365234375,8.705147552490235
15505,-0.2736309814453125,5.444777526855469,8.452622680664064
15572,-0.00029937744140625,4.637655944824219,8.658893737792969
15660,-0.5887257385253907,5.122348022460938,8.608598327636718
15705,-0.25417144775390627,4.974605255126954,8.31984878540039
15772,-0.1734892272949219,5.280868377685547,8.239465942382813
15839,0.10044113159179688,4.723128204345703,8.371790771484376
15905,-0.23082000732421876,5.25512191772461,8.38870559692383
15977,-0.022902374267578126,4.304299163818359,8.492439880371094
16039,-0.21929397583007815,5.251379699707032,8.258177032470703
16105,-0.13037887573242188,4.4403662109375,8.335117034912109
16172,-0.26435028076171874,5.043162689208985,8.360863494873048
16238,-0.5084925842285156,5.078938293457031,8.733438720703125
16305,-0.08352630615234376,4.875810699462891,8.136031036376954
16372,-0.3135978698730469,4.620292053222657,8.329428863525392
16439,-0.2070195007324219,5.0656159973144534,8.520132293701172
16505,-0.48618896484375,4.714895324707031,8.713380432128906
16572,-0.3448828125,4.7181884765625,8.220006408691408
16639,-0.5634283447265626,4.719086608886719,8.520581359863282
16705,-0.147293701171875,4.908293151855469,8.533005523681641
16772,-0.6354286193847657,4.851561126708985,9.036708068847657
16839,-0.41119491577148437,4.580325164794922,7.912396087646485
16905,-0.6104306030273438,4.99840576171875,8.528963928222657
16971,-0.3668870544433594,4.895569610595703,8.84001708984375
17038,-0.5240602111816407,4.630321197509766,8.369246063232422
17105,-0.6388714599609375,4.765639801025391,8.461454315185547
17172,-0.7313790893554688,4.94855941772461,8.709787902832032
17238,-0.3897894287109375,5.201982421875,8.533753967285156
17305,-0.5435197448730469,4.746779022216797,8.819809112548828
17372,-0.5164260864257812,4.550537109375,8.139922943115234
17439,-1.017733612060547,5.609584808349609,8.748108215332032
17505,-0.36254608154296875,5.035528564453125,8.29589859008789
17572,-0.15762222290039063,4.952900390625,8.523425445556642
17639,-0.6062393188476562,4.673581237792969,8.297545166015626
17705,-0.41433837890625,5.537434844970703,8.295000457763672
17772,-0.7587721252441406,5.159171447753907,8.493936767578125
17839,-0.24863296508789065,5.252577209472657,7.79818359375
17905,-0.3146456909179688,4.5972399902343755,8.447533264160157
17972,0.17438735961914065,4.824018402099609,8.381670227050781
18039,-0.5674699401855469,4.700824584960937,9.015601959228515
18105,-0.25536895751953126,5.169350280761719,8.57372085571289
18172,-0.7279362487792969,5.582491149902344,6.7035099792480475
18239,-0.5059478759765625,4.924010467529297,9.591304779052734
18305,-0.6532415771484376,4.7927334594726565,8.773704986572266
18372,0.055384826660156254,5.0247509765625,7.493866424560547
18439,-0.34278717041015627,5.110522613525391,8.827742614746095
18505,-0.3159928894042969,4.661606140136719,8.388555908203125
18572,-0.00808319091796875,5.193599853515625,8.130642242431641
18639,-0.04086502075195313,5.351371765136719,8.797505493164063
18705,0.20133132934570314,5.396278381347656,8.286617889404297
18772,-0.19474502563476564,4.319417724609375,8.703201599121094
18839,0.6020480346679687,5.015320587158203,8.28048065185547
18905,0.132923583984375,4.417463836669922,9.062454528808594
18972,0.2273771667480469,4.689597930908203,8.42852279663086
19039,-0.5195695495605469,4.661606140136719,8.83612518310547
19105,0.1730401611328125,4.468956756591797,8.273594970703126
19172,-0.3195854187011719,4.763843536376953,9.025331726074219
19239,-0.47496231079101564,4.57209228515625,8.659043426513673
19305,-0.022602996826171878,4.53856201171875,8.027806091308594
19372,-0.6207591247558594,4.862937469482422,8.83373016357422
19439,-0.27033782958984376,4.255800018310547,8.706494750976564
19505,-0.09984237670898438,4.2819955444335935,8.843908996582032
19572,-0.12229568481445313,4.036506042480469,8.804091796875001
19639,0.0844244384765625,4.101470947265625,8.403973846435548
19705,0.12499008178710938,4.264631652832032,9.349407806396485
19772,0.8569679260253906,4.029919738769531,9.188492431640626
19839,0.8903485107421876,4.448449401855469,9.195976867675782
19905,0.6369255065917969,3.213816833496094,8.774004364013672
19972,1.0491682434082032,3.8323306274414066,8.294102325439454
20039,0.2505789184570313,3.877087554931641,9.822124786376953
20105,0.1598675537109375,4.516108703613281,9.701475677490235
20172,-0.16645385742187502,3.943100280761719,7.961194610595704
20239,0.3347039794921875,3.825594635009766,8.158035278320312
20305,-0.2851570129394531,4.125271453857422,10.148745574951173
20372,-0.006885681152343751,4.097429351806641,9.191935272216798
20438,-0.010328521728515625,4.415517883300781,7.593110046386719
20505,0.030686187744140628,3.6247123718261722,9.439520416259766
20572,0.4201762390136719,3.7953575134277346,8.52866455078125
20639,0.16570541381835938,4.636308746337891,8.57372085571289
20705,-0.2866539001464844,4.755910034179688,9.77976287841797
20771,0.5147795104980469,4.35654052734375,8.192613372802734
20839,0.5186714172363281,4.237537994384766,8.358019409179688
20905,0.22408401489257815,3.636388092041016,8.998238067626954
20972,0.5408253479003906,4.8738647460937505,8.931626586914064
21039,-0.6830296325683594,4.9740065002441405,8.671766967773438
21105,0.1239422607421875,3.962260437011719,7.80536865234375
21172,-0.19773880004882813,3.624562683105469,9.251361694335937
21238,-0.19309844970703127,4.333638153076172,9.42529998779297
21305,-0.5730084228515625,3.9499859619140625,9.229507141113281
21372,0.038470001220703126,3.14466064453125,8.539591827392579
21439,0.21390518188476565,3.1325358581542972,9.50912567138672
21505,0.623902587890625,3.070714416503906,9.241781616210938
21572,0.6956034851074219,4.289629669189454,9.405092010498047
21638,-0.2924917602539063,3.5941758728027344,10.039921875000001
21705,0.6722520446777344,3.31470703125,8.279133453369141
21772,0.3561094665527344,3.363655242919922,9.376351776123048
21839,0.09624984741210937,3.2124696350097657,8.853189697265625
21905,0.20627105712890625,3.0328431701660157,9.444310455322267
21972,-0.41074584960937505,3.6706668090820314,9.828561401367187
22039,-0.25761428833007816,3.497476959228516,9.301657104492188
22108,0.39892044067382815,3.629203033447266,8.820258178710938
22172,0.5001100158691406,3.6609370422363283,9.162147216796875
22239,0.45340713500976565,3.294049987792969,9.005872192382814
22305,0.6834786987304687,3.783532104492188,8.570577392578125
22372,-0.13127700805664064,3.1882200622558594,9.786349182128907
22439,0.15402969360351562,3.666475524902344,9.053024139404297
22505,-0.3393443298339844,3.6012112426757814,9.022188262939453
22572,-0.12678634643554687,3.419638824462891,8.992549896240234
22639,-0.4201762390136719,3.8049375915527346,9.464518432617188
22705,0.08517288208007813,4.1433837890625,9.059011688232422
22772,-0.10208770751953125,3.6351905822753907,9.059311065673828
22839,0.408350830078125,3.6669245910644532,8.52626953125
22905,-0.17154327392578125,3.896397399902344,9.48427734375
22972,0.3499722290039063,3.968397674560547,8.855285339355468
23039,0.10912307739257814,3.906127166748047,9.279802551269531
23105,0.2664459228515625,3.749103698730469,8.784183197021484
23172,0.11286529541015626,4.262386322021484,9.175170135498048
23239,0.094603271484375,3.9929466247558594,9.037905578613282
23305,0.23381378173828127,4.0475830078125,8.96171401977539
23372,0.17797988891601563,4.004622344970703,8.857979736328126
23439,0.2591111755371094,4.547393646240234,8.642877044677736
23505,-0.13861175537109377,4.9388296508789065,8.845705261230469
23572,-0.27737319946289063,4.8506629943847654,8.16028060913086
23639,-0.3784130859375,4.773872680664063,8.268655242919923
23705,-0.11750564575195313,4.7312113952636725,8.652756500244141
23771,-0.24908203125,4.351900177001953,8.946894836425782
23839,-0.052989807128906254,4.321513366699219,8.608897705078125
23905,-0.33784744262695315,4.676275634765625,8.652906188964844
23972,-0.18441650390625,4.86712875366211,8.380921783447267
24039,-0.6161187744140625,4.655019836425781,8.73463623046875
24105,-0.25536895751953126,4.643793182373047,8.730145568847657
24172,-0.5906716918945313,4.442611541748047,9.097631378173828
24239,-0.25162673950195313,4.402045898437501,8.039930877685547
24305,-0.5107379150390625,4.423152008056641,9.041947174072266
24372,-0.39847137451171877,4.668641510009766,8.823551330566406
24439,-0.5530998229980469,4.701573028564454,8.336164855957032
24505,-0.3622467041015625,4.511318664550782,8.404722290039063
24572,-0.42526565551757817,4.5812232971191404,8.92713592529297
24639,-0.31689102172851563,4.493206329345703,8.612190856933594
24705,-0.46298721313476565,4.541106719970704,8.473878479003906
24772,-0.33769775390625,4.601580963134766,8.692573699951172
24839,-0.35042129516601567,4.690046997070313,8.883426818847656
24905,0.0293389892578125,4.7575566101074225,8.659791870117187
24971,-0.17633331298828125,4.583468627929688,8.586294708251954
25038,-0.14864089965820312,4.564458160400391,8.600215759277344
25105,0.11735595703125,4.723128204345703,8.64407455444336
25172,0.0058378601074218755,4.710853729248047,8.70155502319336
25239,-0.13382171630859377,4.688101043701172,8.522227935791015
25305,-0.17992584228515626,4.599485321044922,8.737180938720703
25372,0.116158447265625,4.743186492919922,8.506809997558594
25439,-0.0718505859375,4.679119720458985,8.832682342529298
25505,-0.12139755249023439,4.5375141906738286,8.41460174560547
25572,-0.29413833618164065,4.558919677734376,8.797954559326172
25639,-0.085023193359375,4.664899291992188,8.460855560302734
25705,-0.4221221923828125,4.578079833984376,8.61204116821289
25772,-0.24339385986328127,4.405488739013672,8.614286499023438
25839,-0.04775070190429688,3.890260162353516,8.998687133789064
25905,0.4915777587890625,3.6229161071777347,9.134305114746095
25972,0.6168672180175782,3.4203872680664062,9.407936096191406
26041,0.14175521850585937,3.546425170898438,8.865763549804688
26106,0.04700225830078125,3.6133360290527348,10.029443664550781
26172,0.23231689453125,3.816164245605469,8.540789337158204
26239,-0.027542724609375003,3.8229002380371098,8.593629455566406
26306,0.2077679443359375,3.801794128417969,9.33863021850586
26372,0.031734008789062504,3.792214050292969,9.100774841308594
26439,0.23141876220703125,3.834126892089844,8.696166229248048
26506,0.12903167724609377,3.8411622619628907,9.215885467529297
26573,0.2429447937011719,3.898642730712891,8.987310791015625
26640,0.16959732055664065,3.9233413696289063,8.851393432617188
26706,0.07214996337890625,4.095633087158204,8.783135375976563
26773,-0.11570938110351563,4.233945465087891,8.972641296386719
26838,0.2543211364746094,4.224515075683594,8.837921447753907
26905,0.11945159912109375,4.099524993896485,8.865164794921876
26972,0.33171020507812504,4.155508575439454,8.893006896972656
27039,0.295784912109375,4.338278503417969,8.877888336181641
27105,0.238304443359375,4.369264068603516,8.902586975097657
27172,0.31150222778320313,4.280648345947266,8.585246887207031
27239,0.20028350830078126,4.318070526123047,8.785829772949219
27305,0.29608428955078125,4.503385162353516,8.72355926513672
27372,0.13217514038085937,4.417314147949219,8.957223358154298
27439,0.24489074707031253,4.399052124023438,8.6460205078125
27505,0.09969268798828125,4.4457550048828125,8.823251953125
27572,0.316142578125,4.673431549072266,9.17576889038086
27639,-0.4604425048828125,5.043013000488282,8.888965301513672
27705,-0.06032455444335938,5.46303955078125,7.970325622558594
27772,0.03562591552734375,5.526208190917969,6.601422271728516
27839,1.4804214477539064,4.4177632141113286,9.112899627685547
27905,-1.1554472351074219,3.7076399230957033,10.118807830810548
27972,-0.15642471313476564,3.333717498779297,8.740025024414063
28039,-1.6497193908691408,3.859573974609375,7.446265411376953
28105,-1.5684384155273439,2.9620404052734375,9.901908874511719
28172,-1.2981005859375,2.5812322998046877,9.898016967773438
28239,-1.76033935546875,3.752696228027344,9.595046997070312
28305,-1.119671630859375,3.233426055908203,9.672136688232422
28372,0.5559439086914063,2.4179219055175785,9.416767730712891
28439,-1.2219090270996094,2.7030789184570314,9.275760955810547
28505,-3.0520033264160156,2.7189459228515624,9.343719635009766
28572,-3.2557296752929688,2.152074737548828,8.770411834716798
28639,-2.973267059326172,2.2734722900390625,9.011560363769531
28705,-2.835703125,2.425106964111328,8.50666030883789
28772,-2.31598388671875,3.1918125915527344,8.696615295410156
28839,-2.2041664123535156,3.4325120544433596,8.837023315429688
28905,-2.308649139404297,3.4410443115234375,9.07667495727539
28972,-2.0683987426757815,3.4393977355957035,9.586514739990236
29039,-1.9944525146484375,3.367098083496094,8.918453979492188
29105,-1.412911834716797,3.8643640136718753,9.245374145507814
29172,-1.931283874511719,3.80568603515625,8.605005798339844
29239,-2.415526885986328,3.71946533203125,8.420888671875
29305,-2.5509951782226565,3.515888671875,9.033714294433594
29372,-2.3197261047363282,3.7293447875976566,9.24717041015625
29439,-2.5656646728515624,3.8564305114746094,9.56046890258789
29505,-2.5524920654296874,3.603007507324219,8.810079345703125
29572,-2.6409580993652346,3.3615596008300783,7.754773864746094
29639,-3.03448974609375,3.766168212890625,7.396119689941407
29705,-3.6622842407226566,3.842808837890625,7.722441101074219
29772,-3.5022669982910157,3.6720140075683596,8.521329803466797
29839,-3.34105224609375,3.841461639404297,8.283474426269532
29905,-3.1100825500488285,3.856580200195313,8.612340545654297
29971,-3.3376094055175782,3.605701904296875,8.456065521240236
30039,-3.171155548095703,3.6447706604003907,8.946595458984376
30105,-3.430566101074219,3.716471557617188,8.607101440429688
30172,-3.619772644042969,3.5381922912597656,8.888965301513672
30239,-3.643573150634766,3.5711238098144533,8.24320816040039
30305,-3.5534605407714848,3.702251129150391,7.909552001953125
30372,-3.3606614685058593,3.9734870910644533,7.873177642822266
30439,-3.2698004150390627,3.6048037719726564,7.430997161865235
30505,-3.157683563232422,3.554208984375,7.555388488769531
30572,-3.393443298339844,2.688110046386719,8.868308258056642
30639,-2.994971923828125,1.4244378662109376,10.860814819335937
30705,-2.382146301269531,1.3425581359863281,11.174861755371094
30772,-2.8696824645996095,1.5235317993164064,10.481204223632814
30839,-3.4214350891113283,1.6265176391601563,10.226583709716797
30905,-3.155288543701172,2.0050804138183596,9.644893341064453
30972,-3.323987731933594,2.339335327148438,8.196654968261718
31039,-3.903283081054688,2.9729676818847657,6.586752777099609
31105,-4.30190414428711,3.428320770263672,5.726641387939454
31172,-3.5187327575683596,2.985092468261719,4.928650817871094
31239,-3.720363464355469,1.7269587707519531,8.143665161132812
31305,-3.6164794921875,0.8012837219238281,10.567724304199219
31372,-4.731660461425782,0.35326538085937503,11.419303436279298
31439,-4.707111511230469,1.3210029602050781,9.301507415771486
31505,-3.669918365478516,2.4649241638183597,8.211324462890625
31572,-2.954106903076172,2.382445678710938,8.659193115234375
31639,-3.7775445556640626,1.277742919921875,9.424102478027343
31705,-3.3418006896972656,2.035616912841797,9.3932666015625
31772,-3.2686029052734376,2.1707858276367187,9.679770812988282
31839,-4.464166717529297,1.5133529663085938,9.198072509765625
31905,-4.328997802734375,0.6667135620117188,8.621621246337892
31972,-4.158352661132812,1.0768606567382812,8.302933959960939
32039,-3.396736450195313,2.149080963134766,8.934470672607421
32105,-2.9880862426757813,2.1128562927246093,9.70312225341797
32172,-3.588787078857422,2.1677920532226564,9.05272476196289
32239,-3.3919464111328126,2.8472291564941408,8.799152069091797
32305,-3.6696189880371097,2.9080027770996093,9.335486755371095
32372,-3.3849110412597656,2.9798533630371096,10.299931182861329
32439,-3.4277220153808594,2.9997619628906254,9.37216049194336
32505,-2.059716796875,3.6979101562500003,8.150999908447266
32572,-2.188898162841797,4.222419433593751,8.10998519897461
32639,-1.6805552673339845,5.302722930908203,6.8919680786132815
32705,-1.7702188110351564,3.8805303955078125,7.924221496582032
32772,-1.214424591064453,3.7866755676269532,10.5141357421875
32839,-1.6616944885253908,4.132007446289062,8.465795288085937
32905,-1.2528945922851562,4.883295135498047,7.565417633056641
32972,-1.0774594116210938,4.9317942810058595,7.689359893798828
33045,-1.5067666625976563,5.4248689270019534,7.9590989685058595
33105,-0.7779322814941406,5.475164337158203,7.995623016357422
33172,-0.6414161682128906,5.413492584228516,8.01897445678711
33239,-0.7409591674804688,5.613626403808594,8.501720581054688
33305,-1.1621832275390627,5.641169128417969,8.127199401855469
33372,-1.1181747436523437,5.676944732666016,8.256680145263672
33439,-0.7961943054199219,5.739963684082031,7.991132354736329
33505,-0.8403524780273438,5.9216857910156255,7.641309814453125
33572,-1.1752061462402343,5.9637483215332034,7.862998809814454
33639,-1.1873309326171875,6.036347351074219,7.796387329101563
33705,-1.1835887145996093,6.063740386962891,7.410190429687501
33772,-1.3778846740722657,6.0957737731933594,7.569758605957031
33839,-1.4444961547851562,5.893095245361328,8.041876831054688
33905,-1.9252963256835938,5.195845184326172,8.004005584716797
33972,-1.3452525329589844,5.3438873291015625,7.994126129150391
34039,-0.7438032531738281,5.5899755859375,8.174051971435548
34105,-1.1181747436523437,5.641917572021485,7.709567871093751
34172,-1.0889854431152344,5.695506134033203,7.861202545166016
34239,-1.1317964172363282,5.400769042968751,7.634124755859375
34305,-0.779578857421875,5.637726287841797,7.488327941894531
34372,-0.5412744140625,5.61437484741211,7.488777008056641
34439,-0.13457015991210938,5.588179321289063,7.990383911132813
34505,-0.09011260986328125,5.889502716064453,8.237220611572265
34572,-0.39652542114257816,5.938600616455078,8.275840301513671
34639,-0.6740483093261719,5.957461395263672,8.597521362304688
34705,-1.1271560668945313,5.5464161682128905,8.192613372802734
34771,-0.7453001403808595,5.392985229492187,7.715705108642578
34838,-0.0544866943359375,5.691314849853516,8.340655517578126
34905,-0.02125579833984375,6.3038410949707036,8.51908447265625
34971,-0.2662962341308594,5.570216674804688,10.022108917236329
35038,-1.3079800415039062,4.092339935302735,8.478967895507813
35105,-3.416645050048828,4.367018737792969,7.108118591308594
35172,-4.290976867675782,3.569626922607422,9.31273406982422
35239,-2.3739134216308595,2.2290147399902347,6.492448883056641
35305,-3.439248046875,0.8979826354980469,4.322710876464844
35372,0.11391311645507814,3.0193711853027345,4.906197509765625
35439,0.3303630065917969,5.667214965820313,8.835825805664063
35505,-2.423610076904297,6.101012878417969,6.646628265380859
35572,-0.5334906005859376,9.953551483154298,17.101786651611327
35638,0.781824188232422,4.810546417236329,7.699389038085938
35705,5.188660125732422,5.370531921386719,7.342082061767578
35772,1.747166748046875,5.512586517333984,6.063441009521485
35839,-0.5653742980957032,4.911735992431641,9.840985565185548
35905,-1.6314573669433594,5.162165222167969,9.966724090576172
35972,-1.5390994262695312,5.222789154052735,8.426277465820313
36039,-1.9657122802734377,4.077071685791016,6.696624298095704
36105,-2.5715025329589847,6.003864898681641,4.985532531738282
36172,0.0688568115234375,6.426735534667969,7.0346214294433596
36239,1.6768130493164064,7.389982452392578,9.258247375488281
36305,-0.15941848754882812,4.9247589111328125,8.258177032470703
36372,0.3980223083496094,8.403973846435548,7.9370947265625
36439,-0.3406915283203125,6.492748260498047,6.582561492919922
36505,-0.49876281738281253,5.832022247314454,7.805218963623047
36572,-0.00269439697265625,5.886508941650391,8.744815063476564
36639,0.1149609375,5.6856266784667975,9.278455352783203
36705,-0.23022125244140626,6.164780273437501,8.101752319335938
36772,-0.19848724365234377,6.726711730957032,5.961802368164062
36839,-0.1730401611328125,6.77595932006836,6.331533508300781
36905,-0.417930908203125,7.134014739990235,5.972729644775391
36972,-0.46613067626953125,6.512956237792969,7.087910614013672
37039,-0.23381378173828127,6.670877838134766,7.741451568603516
37105,-0.1722917175292969,6.714586944580079,6.919660491943359
37171,-0.4427792358398438,6.5803161621093755,7.314090270996094
37239,-0.22947280883789065,6.661597137451173,7.326664123535156
37305,-0.475411376953125,6.524332580566407,7.2863978576660156
37372,-0.7705975341796876,5.984555053710938,8.082292785644531
37439,-0.42661285400390625,6.332132263183594,7.587721252441407
37505,-0.6167175292968751,6.1575952148437505,7.422315216064454
37572,-0.4731660461425781,5.856571197509766,7.563621368408204
37639,-0.36284545898437504,5.989345092773438,7.788004760742188
37705,-0.41074584960937505,6.066135406494141,7.735464019775391
37772,-0.6370751953125,5.879922637939454,7.8234809875488285
37839,-0.5002597045898438,6.192472686767578,7.898924102783203
37905,-0.4040098571777344,6.440806274414062,6.311624908447266
37972,0.30910720825195315,5.598657531738281,5.317691802978516
38039,1.0810519409179689,3.4036221313476562,7.731871490478516
38105,0.9886940002441407,2.005828857421875,9.340875549316406
38172,1.0819500732421876,0.9650431823730469,13.254936218261719
38239,0.20088226318359376,-0.7126679992675782,11.710298309326172
38305,-0.42242156982421875,-0.5092410278320313,10.346783752441407
38372,-1.0915301513671876,-0.014819183349609376,9.084159393310546
38439,-0.41284149169921874,0.8405021667480469,10.007888488769531
38505,0.07140151977539062,1.2780422973632812,10.005792846679688
38572,0.3116519165039063,1.828597412109375,11.666738891601563
38639,0.060474243164062504,3.6396812438964847,9.507179718017579
38705,-0.029788055419921876,4.996908874511719,6.659800872802735
38772,-0.1191522216796875,6.04547836303711,7.078031158447266
38839,-0.18232086181640625,6.651717681884766,7.412136383056641
38905,-0.031734008789062504,6.9217561340332034,6.574627990722656
38972,-0.3757186889648438,7.240443420410156,5.6026991271972655
39039,-0.6520440673828125,7.80821273803711,5.5552478027343755
39105,0.3028202819824219,8.342002716064453,4.883893890380859
39172,0.43349853515625003,8.314310302734375,4.957241363525391
39239,-0.37601806640625,7.832462310791016,5.613626403808594
39305,-0.6330335998535157,8.085436248779297,6.000122680664063
39372,-0.3435356140136719,7.610174560546875,5.893993377685547
39439,-0.14459930419921876,7.655380554199219,5.838458862304687
39505,-0.015717315673828124,7.70043685913086,5.590574340820313
39572,-0.2149530029296875,7.396568756103516,5.995332641601562
39639,-0.8560697937011719,6.577472076416016,7.731272735595703
39705,-1.3392649841308595,5.315296783447266,8.367599487304688
39772,-1.423839111328125,5.564827880859375,8.391998748779297
39839,-0.22094055175781252,7.201374664306641,7.200626220703126
39905,-0.5760021972656251,6.417155456542969,7.060367889404297
39971,-0.721948699951172,6.423741760253907,6.817572784423828
40039,-0.5180726623535157,6.302942962646485,7.492219848632813
40105,-0.7026388549804687,6.262377319335938,7.8498262023925784
40172,-0.6632707214355469,5.905369720458984,7.660769348144532
40239,-0.5560935974121094,5.762117614746094,7.637417907714844
40305,-0.33784744262695315,5.964945831298828,7.965086517333985
40372,-0.7414082336425781,6.0059605407714844,7.768395538330078
40439,-0.7358697509765625,5.714067535400391,7.751181335449219
40505,-0.2028282165527344,5.843697967529297,7.937244415283203
40572,-0.18082397460937502,6.058650970458984,7.885152740478516
40639,-0.3095562744140625,5.941893768310547,7.759713592529297
40705,-0.4493655395507813,5.772895202636719,7.854167175292969
40772,-0.29593460083007816,6.086493072509766,7.513325958251953
40839,-0.3011737060546875,5.806874542236328,7.661667480468751
40905,-0.3031196594238281,5.825286254882813,7.976462860107422
40972,-0.26719436645507816,5.807622985839844,7.994874572753907
41039,-0.5626799011230469,5.600603485107422,7.930658111572266
41105,-0.3138972473144531,5.775140533447266,8.22015609741211
41172,-0.09445358276367188,5.830675048828125,7.9149407958984375
41239,-0.29114456176757814,5.715714111328126,7.593708801269532
41305,-0.36359390258789065,5.724695434570313,7.87766830444336
41372,0.05044509887695313,5.758674774169922,7.990383911132813
41439,0.458646240234375,5.529651031494141,8.290509796142578
41505,0.13711486816406251,5.470374298095703,8.30637680053711
41572,-0.04924758911132813,5.549110565185547,7.963739318847657
41639,-0.2520758056640625,5.435047760009766,7.794740753173828
41705,-0.07978408813476563,5.490582275390626,8.281678161621095
41772,-0.21151016235351563,5.673052825927734,7.383695526123048
41839,0.5453160095214844,5.144052886962891,8.323740692138673
41905,0.5313949584960938,4.999603271484375,9.672436065673828
41972,0.939895477294922,5.189857635498047,8.711883544921875
42038,0.5493576049804688,5.402415618896485,7.635921020507813
42105,0.09430389404296875,5.6609280395507815,7.581883392333984
42171,-0.18875747680664062,5.8863592529296875,7.703131256103516
42238,-0.5010081481933594,5.725443878173828,7.529043273925781
42305,-0.48409332275390626,5.672903137207031,7.9168867492675785
42372,-0.3694317626953125,6.051615600585937,7.8676391601562505
42439,-0.6325845336914063,6.000272369384766,7.698939971923829
42505,-0.6792874145507812,5.780229949951172,7.85611312866211
42572,-0.3399430847167969,6.225853271484375,8.035739593505859
42639,-0.27228378295898437,6.1891795349121095,7.5733511352539065
42705,-0.39128631591796875,6.189329223632813,7.36468505859375
42772,-0.6433621215820313,6.0288629150390625,7.687264251708985
42839,-0.46613067626953125,6.1486138916015625,7.519762573242188
42906,-0.437091064453125,5.856122131347656,7.6592724609375
42972,-0.5873785400390625,5.891598358154297,7.769143981933595
43039,-0.7743397521972657,6.002368011474609,7.631879425048829
43106,-0.8324189758300782,5.732030181884766,7.811356201171876
43173,-0.5770500183105469,6.110293579101563,8.097860412597656
43238,-0.4644841003417969,6.1875329589843755,7.551047515869141
43305,-0.5411247253417969,6.215375061035156,7.45090576171875
43372,-0.6584806823730469,6.139782257080078,7.838000793457032
43439,-0.2974314880371094,6.389463043212891,7.596403198242188
43505,-0.338895263671875,6.011648712158204,7.4166270446777345
43572,-0.42302032470703127,5.929319915771485,7.617359619140625
43639,-0.6411167907714844,5.9745259094238286,7.844587097167969
43705,-0.678838348388672,5.819149017333984,7.563771057128907
43772,-0.6994953918457032,5.7841218566894534,7.994275817871094
43839,-0.6246510314941407,6.115083618164062,7.704179077148438
43905,-0.6750961303710938,6.258186035156251,7.378306732177735
43972,-0.8509803771972657,6.075865173339844,7.627239074707032
44039,-0.3097059631347656,6.413263549804688,7.735913085937501
44105,-0.3794609069824219,6.248456268310547,7.088359680175782
44172,-0.5047503662109375,5.843248901367188,6.223158874511719
44239,0.41194335937500004,5.424569549560547,6.559359741210938
44305,-0.36284545898437504,4.363426208496094,10.160720672607422
44372,-0.18576370239257814,3.2527359008789065,11.49893783569336
44439,-0.29054580688476567,3.7050952148437504,9.67872299194336
44505,-0.2851570129394531,4.377347259521485,8.44678482055664
44572,-0.28979736328125,4.3031016540527345,8.746611328125
44639,-0.25701553344726563,4.725672912597656,8.535250854492189
44705,-0.12334350585937501,4.3366319274902345,8.828191680908203
44772,-0.36643798828125,4.679718475341797,8.731492767333984
44839,-0.47136978149414066,4.682562561035157,8.589138793945313
44905,-0.542471923828125,5.046605529785157,7.82452880859375
44971,-1.239422607421875,4.922513580322266,7.843988342285157
45039,-0.06197113037109375,4.728516998291016,8.99898651123047
45105,0.5020559692382813,4.7946794128417976,9.645342407226563
45172,-1.0612930297851564,4.703369293212891,7.923023986816407
45239,-1.3783337402343752,5.460345153808594,7.679630126953126
45305,-0.7131170654296876,5.3158955383300786,8.493936767578125
45372,-0.6758445739746094,5.398074645996094,8.448880462646486
45439,-1.0585986328125,5.05109619140625,8.407716064453126
45505,-0.35176849365234375,5.523064727783203,8.0807958984375
45572,-0.13965957641601562,5.288053436279297,7.787406005859375
45639,-0.32901580810546877,5.333708496093751,7.962242431640625
45705,-0.6710545349121094,5.292544097900391,8.157137145996094
45772,-0.5242098999023438,5.4161869812011725,8.217012634277344
45839,-0.28889923095703124,5.334007873535157,8.109386444091797
45905,-0.5777984619140625,5.494324493408204,7.675887908935548
45972,-0.5170248413085938,5.491480407714844,8.075107727050781
46039,-0.7469467163085938,5.426515502929687,7.955955505371094
46105,-0.38574783325195316,5.490881652832032,8.540939025878906
46172,-0.6963519287109375,5.427413635253907,7.942782897949219
46239,-0.6074368286132813,5.552403717041016,7.95670394897461
46305,-0.9541159057617188,5.4320539855957035,7.9996646118164065
46371,-0.8529263305664063,5.415438537597656,8.463250579833986
46439,-0.6882687377929688,5.507197723388672,8.24650131225586
46505,-0.7331753540039063,5.658982086181641,7.950117645263672
46572,-0.9990225219726563,5.364244995117188,7.953261108398438
46639,-0.7789801025390626,5.541326751708985,8.26566146850586
46705,-0.643062744140625,5.614823913574219,8.2915576171875
46772,-0.6667135620117188,5.720504150390625,7.883506164550782
46839,-0.8282276916503907,5.4497172546386725,7.979456634521485
46906,-0.5575904846191406,5.721252593994141,8.107739868164064
46972,-0.5909710693359376,5.348827056884766,7.990084533691407
47038,0.002245330810546875,5.506149902343751,8.009993133544922
47110,-0.5114863586425782,5.591322784423828,8.090525665283204
47172,-0.45295806884765627,5.497467956542969,7.381001129150391
47239,-0.34338592529296874,5.513484649658204,8.480165405273437
47305,-0.5894741821289062,5.265899505615234,8.507109375
47372,-0.62031005859375,5.380261688232422,8.414002990722656
47439,-0.8086184692382813,5.328619079589844,7.701035614013672
47505,-0.7339237976074219,5.288203125,8.231831817626954
47572,-0.3826043701171875,5.451962585449219,8.273145904541016
47639,-0.9096583557128907,5.4302577209472656,8.381370849609375
47705,-1.0132429504394531,5.174140319824219,8.412655792236329
47772,-0.5801934814453126,5.677693176269532,7.626340942382813
47839,-0.1149609375,5.824388122558594,7.9803547668457036
47907,-0.540076904296875,5.860762481689453,8.160879364013672
47972,-0.41164398193359375,5.41513916015625,8.007598114013673
48039,-0.38035903930664067,5.728437652587891,7.819439392089844
48105,-0.28650421142578125,5.475613403320313,8.015381927490235
48172,-0.164058837890625,5.393883361816407,8.155789947509765
48238,-0.4764591979980469,5.393883361816407,8.207432556152344
48305,-0.5210664367675781,5.354215850830078,8.10474609375
48372,-0.43349853515625003,5.351072387695313,8.168663177490235
48438,-0.4248165893554688,5.529501342773438,7.959398345947266
48505,-0.6349795532226563,5.568270721435547,8.069868621826172
48572,-0.871637420654297,5.509293365478516,7.956853637695313
48639,-0.49591873168945316,5.564678192138672,8.084089050292969
48705,-0.3396437072753906,5.7559803771972655,7.977959747314453
48772,-0.5081932067871094,5.763315124511719,7.917784881591797
48838,-0.6547384643554688,5.390440521240235,8.089627532958986
48905,-0.4614903259277344,5.519771575927734,8.459508361816408
48972,-0.45744873046875,5.406906280517578,8.325836334228516
49039,-0.5034031677246094,5.462291107177735,8.01508255004883
49105,-0.5539979553222657,5.514083404541016,8.05924072265625
49172,-0.49876281738281253,5.389243011474609,8.306227111816407
49239,-0.3841012573242188,5.520220642089844,8.17749481201172
49305,-0.3980223083496094,5.478008422851563,8.071814575195313
49372,-0.55324951171875,5.193599853515625,7.9046122741699225
49439,-0.48559020996093755,5.292843475341797,8.510851593017579
49505,-0.3305126953125,5.3438873291015625,7.976013793945313
49572,-0.4219725036621094,5.338348846435547,8.233777770996094
49639,-0.3622467041015625,5.453758850097657,7.907905426025391
49705,-0.4854405212402344,5.103936309814453,8.510851593017579
49772,-0.5069956970214844,5.242847442626953,8.506809997558594
49839,-0.6780899047851563,4.943020935058594,8.452622680664064
49905,-0.4954696655273438,5.216801605224609,8.496331787109375
49972,-0.3106040954589844,5.129383392333985,8.163573760986328
50038,-0.23516098022460938,5.214256896972657,8.142916717529298
50105,-0.5809419250488281,5.210963745117188,8.290360107421876
50172,-0.6337820434570313,5.028942260742188,8.872649230957032
50239,-0.1824705505371094,5.217849426269532,8.079598388671876
50306,-0.5158273315429688,5.148693237304688,8.061186676025391
50372,-0.6719526672363282,5.324278106689453,8.500074005126953
50439,-0.3695814514160156,5.154680786132813,8.234675903320312
50504,-0.33829650878906253,5.042414245605469,8.253087615966797
50573,-0.6044430541992187,5.173990631103516,8.219407653808593
50639,-0.5631289672851563,4.991969146728516,8.663384399414063
50706,-0.4164340209960938,5.200635223388672,8.268056488037109
50771,-0.5634283447265626,5.161117401123047,8.049361267089845
50838,-0.6894662475585938,5.019661560058594,8.750054168701173
50907,-0.39966888427734376,5.156776428222656,8.22255111694336
50972,-0.5192701721191406,5.0569340515136725,8.223748626708986
51039,-0.6985972595214844,5.191055145263672,8.567733306884765
51105,-0.6355783081054688,5.084327087402344,8.308023376464844
51172,-0.49786468505859377,5.284161529541016,8.23841812133789
51239,-0.3004252624511719,5.6749987792968755,7.912096710205079
51305,-0.20642074584960937,5.320236511230469,8.046816558837891
51372,-0.42691223144531254,5.152884521484375,8.292605438232423
51439,-0.686173095703125,5.263354797363282,8.497080230712891
51505,-0.45565246582031255,5.224286041259766,8.537645874023438
51572,-0.37856277465820315,5.174589385986328,7.923023986816407
51639,-0.6860234069824219,5.267546081542969,8.426427154541017
51705,-0.7539820861816406,5.431604919433594,8.458460540771485
51772,-0.2505789184570313,5.464237060546875,7.739056549072266
51839,-0.25626708984375,5.151088256835938,8.161927185058595
51905,-0.6503974914550782,5.1588720703125,8.507109375
51972,-0.6101312255859376,5.206024017333984,8.307574310302735
52039,-0.4689747619628907,5.230273590087891,8.09756103515625
52105,-0.613125,5.3934342956542976,8.552465057373047
52172,-1.1722123718261719,5.547613677978516,8.221203918457032
52239,-0.7813751220703126,5.83666259765625,7.30765365600586
52305,-0.987945556640625,5.748495941162109,7.4994049072265625
52372,-1.7880317687988283,5.856122131347656,7.871980133056641
52439,0.23082000732421876,5.3967274475097655,8.722062377929689
52505,0.15432907104492188,5.672903137207031,8.056845703125001
52572,-0.20507354736328126,5.732030181884766,7.6773847961425785
52639,-0.17124389648437502,5.727389831542969,7.748486938476563
52705,-0.04954696655273438,5.584137725830079,8.143365783691406
52772,0.08457412719726563,5.757327575683594,8.479117584228517
52839,-0.21824615478515627,5.528603210449219,7.94712387084961
52905,0.00987945556640625,5.910010070800782,8.296647033691407
52972,-0.6857240295410156,5.885461120605469,7.455695800781251
53039,-0.991388397216797,6.186485137939454,7.311395874023438
53105,-1.1966116333007812,6.376440124511719,7.0503387451171875
53172,-1.32444580078125,6.022426300048829,7.030879211425781
53239,0.09550140380859376,5.846841430664063,8.63688949584961
53305,-0.0461041259765625,5.883066101074219,7.909252624511719
53372,-0.45101211547851566,5.764362945556641,7.815996551513672
53439,-0.44756927490234377,5.946683807373047,7.806117095947266
53505,-0.3499722290039063,5.770200805664063,7.9679306030273445
53572,-0.26764343261718754,5.875431976318359,7.7601626586914065
53639,-0.3538641357421875,5.827980651855469,7.776329040527344
53705,-0.3788621520996094,5.934708709716797,8.14351547241211
53772,-0.7747888183593751,6.167774047851563,7.687713317871094
53839,-0.7643106079101563,6.177952880859375,7.213499450683594
53905,-1.0594967651367189,6.433920593261719,7.1841604614257815
53972,-1.107696533203125,6.350244598388672,7.372169494628906
54039,-0.3864962768554688,6.1170295715332035,7.689958648681641
54105,-0.2947370910644531,6.226901092529297,7.870632934570313
54172,-0.20073257446289064,6.077362060546875,7.424859924316407
54239,-0.429906005859375,6.262077941894532,7.534132690429688
54305,-0.48978149414062505,6.149212646484376,7.778424682617188
54372,-0.5761518859863282,6.114335174560547,7.644303588867188
54439,-0.530496826171875,6.331234130859375,7.277266845703125
54505,-0.6571334838867188,6.241570587158203,7.402107238769531
54572,-0.5346881103515625,6.302493896484376,7.702532501220704
54639,-0.19040405273437502,6.078709259033204,7.657775573730469
54705,-0.03308120727539063,5.9550663757324225,7.848029937744141
54772,-0.3860472106933594,6.123466186523438,7.306605834960938
54839,0.49247589111328127,5.838458862304687,8.179590454101563
54905,-0.748443603515625,6.037694549560547,7.0714448547363284
54972,-0.28530670166015626,5.891149291992188,8.174950103759766
55039,-0.19669097900390625,5.767955474853516,8.690178680419923
55105,-0.0449066162109375,5.7348742675781255,8.064629516601563
55172,-0.550704803466797,5.634133758544922,7.757617950439453
55239,-0.22902374267578127,6.0854452514648445,7.7266323852539065
55305,-0.34727783203125,6.002817077636719,7.797435150146485
55372,-1.0701246643066407,6.057603149414063,7.0126171875
55439,-0.27303222656250004,6.378984832763672,7.310198364257813
55504,-0.3754193115234375,5.868097229003906,7.859555969238282
55572,-0.3183879089355469,5.964197387695313,8.465795288085937
55639,-0.28949798583984376,5.944288787841797,7.7636054992675785
55707,-0.93884765625,6.5527734375,5.874683532714844
55772,-0.05044509887695313,6.558311920166016,7.605085144042969
55839,-0.13007949829101564,5.9638980102539065,8.195307769775392
55905,-0.041613464355468754,5.67380126953125,8.24410629272461
55972,0.018860778808593753,5.698649597167969,7.631280670166016
56039,-0.00928070068359375,6.032605133056641,7.795339508056641
56105,-0.34024246215820314,6.016139373779297,7.913892974853516
56172,-0.20492385864257814,5.547913055419922,7.8606037902832036
56239,0.16495697021484376,5.677094421386719,7.968229980468751
56306,0.1071771240234375,5.6892192077636725,7.985593872070313
56372,-0.2436932373046875,5.539231109619141,8.121062164306641
56439,-0.12903167724609377,5.361700286865235,8.06492889404297
56507,0.15283218383789063,5.172044677734375,7.981402587890625
56573,-0.5635780334472656,5.18521728515625,6.430328063964844
56639,0.5873785400390625,3.822301483154297,10.649154968261719
56705,0.8593629455566407,3.5140924072265625,10.48105453491211
56783,1.0614427185058595,3.5816020202636722,8.78448257446289
56839,1.210682373046875,4.00881362915039,8.297395477294922
56905,0.6150709533691406,4.28992904663086,8.196355590820312
56971,0.24908203125,3.5254687500000004,7.959248657226563
57038,0.0437091064453125,2.921325073242188,9.810898132324219
57106,0.3769161987304688,2.099234619140625,11.013048248291016
57174,2.0442988586425783,3.8938526916503906,8.974287872314454
57238,2.349065093994141,4.1338037109375,8.931027832031251
57308,1.20469482421875,4.0356079101562505,8.448281707763673
57374,0.49651748657226563,4.2583447265625,8.851842498779297
57439,0.7723937988281251,4.472698974609375,8.259524230957032
57508,0.9087602233886719,4.1324565124511725,8.309819641113283
57575,0.6535409545898437,3.817361755371094,9.261390838623047
57639,1.2496014404296876,3.9339692687988284,8.866212615966797
57708,0.4884342956542969,3.4015264892578125,9.391021270751954
57775,0.47795608520507815,3.8577777099609376,9.502838745117188
57839,0.5710624694824219,3.326382751464844,9.468709716796875
57909,0.20627105712890625,3.988905029296875,8.926836547851563
57971,0.125738525390625,4.039200439453126,8.87639144897461
58038,0.3207829284667969,3.8380187988281254,8.889713745117188
58109,0.9937834167480469,4.210144958496094,8.541238403320312
58172,0.6807843017578126,4.293072509765625,9.185049591064454
58239,0.0532891845703125,4.123774566650391,8.640931091308595
58305,0.4393363952636719,4.197870483398438,8.573421478271484
58372,0.4189787292480469,4.106260986328126,9.09104507446289
58439,0.8575666809082032,4.583768005371094,9.077273712158204
58505,0.19399658203125,4.38093978881836,8.727750549316406
58572,-0.12768447875976563,4.400249633789063,8.286767578125
58639,0.688568115234375,3.9368133544921875,9.151219940185547
58705,1.1406280517578125,4.818180541992188,9.267977142333985
58772,0.03203338623046875,4.356690216064453,8.07750274658203
58839,-0.1826202392578125,3.9513331604003907,8.75903549194336
58906,0.5926176452636719,4.491260375976562,9.076824645996094
58972,0.7646099853515625,4.420607299804688,8.731193389892578
59039,0.5715115356445313,4.1817041015625005,8.753497009277345
59106,0.8196954345703126,4.490511932373047,8.586444396972656
59171,0.6689588928222656,4.102818145751954,8.76053237915039
59239,0.6012995910644532,4.276906127929688,8.980574798583985
59306,0.4358935546875,4.0213874816894535,8.968749389648439
59372,0.6652166748046875,4.0231837463378906,8.818611602783204
59439,0.8485853576660156,4.256099395751954,8.879684600830078
59505,0.2613565063476563,4.081861724853516,9.066346435546876
59572,0.5861810302734375,4.214635620117187,8.838220825195313
59639,0.5237608337402344,3.952830047607422,8.7993017578125
59706,0.610580291748047,4.123624877929688,9.243727569580079
59772,0.7051835632324219,4.008214874267578,8.547375640869141
59839,0.38200561523437504,4.152365112304688,9.736353149414063
59907,0.20731887817382813,4.62957275390625,9.04553970336914
59972,-0.10148895263671875,4.749623107910156,7.745792541503906
60039,-0.24743545532226563,5.093907165527344,8.158634033203125
60105,-0.20941452026367188,5.073549499511719,8.434510345458985
60172,-0.48753616333007815,4.911137237548829,8.407716064453126
60239,-0.6547384643554688,4.3718087768554685,9.255103912353515
60307,-1.294508056640625,3.392395477294922,8.66562973022461
60372,-0.7140151977539063,4.029770050048828,8.093070373535157
60439,1.5569123840332033,4.805457000732422,9.711953887939453
60505,-1.4702426147460939,3.1757958984375003,9.432934112548828
60572,-1.483714599609375,4.993915100097657,8.725205841064454
60639,-2.414029998779297,6.53645736694336,5.737568664550782
60706,-3.304079132080078,6.232589263916016,3.9980360412597657
60772,0.1389111328125,5.716612243652344,8.159681854248047
60839,0.5062472534179687,5.721402282714844,7.257507934570313
60907,0.14025833129882814,5.488935699462891,9.008267211914063
60972,-0.7424560546875001,5.322032775878906,9.08565628051758
61039,-0.8244854736328125,4.845423889160156,8.997339935302735
61106,-0.8038284301757813,5.546715545654298,7.6687028503417976
61172,-0.8036787414550781,5.598657531738281,7.534282379150391
61239,-0.8641529846191407,6.068231048583985,7.898025970458985
61306,-0.45655059814453125,5.634732513427735,7.48488510131836
61372,0.32482452392578126,5.22832763671875,8.20773193359375
61439,-0.4890330505371094,5.926625518798828,8.10519515991211
61505,-0.6375242614746094,5.224286041259766,8.52192855834961
61572,0.07214996337890625,5.599705352783204,8.050409088134765
61639,-0.00029937744140625,5.438490600585938,7.95430892944336
61707,-0.5465135192871095,5.524561614990235,8.107739868164064
61772,-0.27692413330078125,5.509892120361329,7.897127838134766
61839,-0.036374359130859374,5.273982696533204,8.370892639160157
61906,-0.21884490966796877,5.356910247802735,8.410111083984376
61972,-0.3838018798828125,4.899012451171875,8.164022827148438
62039,-0.14085708618164064,4.843178558349609,8.104596405029298
62106,0.21345611572265627,4.882696380615235,8.809031524658204
62172,-0.2974314880371094,4.2415795898437505,9.84592529296875
62239,-0.3896397399902344,4.991071014404297,10.786718902587891
62306,-1.2118798828125001,5.595364379882813,7.44416976928711
62372,-1.4509327697753907,6.65575927734375,5.010829925537109
62439,-0.8146060180664063,7.378306732177735,3.5645375061035156
62505,-0.4056564331054688,6.432872772216797,4.289629669189454
62572,-0.38889129638671877,4.484973449707032,9.578730926513673
62639,0.25881179809570315,3.5557058715820316,12.897778930664064
62706,0.3088078308105469,4.0002813720703125,9.923464050292969
62771,0.08187973022460938,4.937482452392579,7.399412841796876
62839,0.04954696655273438,4.932243347167969,7.6592724609375
62906,-0.30177246093750004,5.00124984741211,8.407716064453126
62972,-0.5053491210937501,4.848267974853516,8.711434478759767
63039,-0.28874954223632815,5.234165496826172,8.393196258544922
63107,-0.4004173278808594,5.399421844482422,8.165220336914063
63172,-0.65863037109375,5.049748992919922,8.043972473144532
63239,-0.4336482238769531,5.355413360595703,8.03050048828125
63306,-0.1490899658203125,5.239105224609375,8.059540100097657
63372,-0.4357438659667969,5.158273315429688,8.757089538574219
63439,-0.5542973327636719,4.923262023925782,8.79061981201172
63507,-0.16914825439453127,5.120252380371094,8.144114227294923
63572,-0.1633103942871094,5.233417053222657,7.798333282470703
63639,-0.3838018798828125,5.342091064453125,7.932154998779297
63706,-0.3511697387695313,5.127587127685547,9.238338775634766
63772,-0.6147715759277345,5.145699462890625,8.234675903320312
63839,-0.3848497009277344,5.110522613525391,7.850574645996094
63906,-0.7337741088867188,6.081403656005859,9.16139877319336
63972,-1.6768130493164064,5.7224501037597655,7.479196929931641
64039,-1.264270935058594,5.888604583740235,6.926396484375
64107,-0.9515711975097657,6.197861480712891,6.7000671386718755
64173,-0.6547384643554688,5.711073760986328,8.74616226196289
64239,0.9505233764648438,5.452561340332031,7.846982116699219
64307,1.3293855285644531,5.788462829589844,8.611143035888672
64373,1.1070977783203126,6.868466949462891,6.804998931884766
64438,-0.7599696350097657,7.1931417846679695,6.44305160522461
64506,-0.2712359619140625,6.7969157409667975,6.5238835144042975
64574,-0.6884184265136719,6.120322723388672,6.721921691894532
64638,0.41044647216796876,6.179449768066407,9.257947998046875
64707,-0.07589218139648438,5.232967987060547,9.02293670654297
64772,-0.4454736328125,5.543572082519532,7.655679931640625
64839,-0.5402265930175781,6.268813934326173,7.432494049072266
64908,0.9162446594238282,6.565347290039063,7.955955505371094
64972,0.3092568969726563,6.475983123779297,6.872209167480469
65039,-0.9063652038574219,6.0306591796875,7.83889892578125
65105,-1.742227020263672,5.513933715820313,8.05639663696289
65172,-1.4596147155761718,5.941295013427735,7.133715362548829
65238,-0.4291575622558594,6.09098373413086,7.846083984375
65309,-0.44442581176757817,6.227948913574219,7.779771881103516
65371,-0.34682876586914063,5.66901123046875,7.665858764648438
65438,-0.7171586608886719,5.643564147949219,7.151827697753907
65509,-0.8689430236816407,6.15041015625,8.620423736572267
65576,-1.3043875122070314,5.591023406982422,7.7071728515625
65639,-0.5992039489746094,5.797593841552735,7.1967343139648445
65705,-0.8726852416992188,6.3161155700683596,8.002808074951172
65772,-1.3138179016113283,6.172564086914063,8.0424755859375
65839,-1.2853770446777344,5.737269287109375,7.282356262207031
65905,-0.8316705322265625,6.140231323242188,7.6880126953125005
65972,-1.35797607421875,5.979914703369141,8.19336181640625
66039,-1.1070977783203126,6.088289337158203,7.763156433105469
66105,-0.6691085815429688,5.8987834167480475,7.041207733154297
66172,-0.705333251953125,5.852679290771484,7.433541870117188
66239,-0.5544470214843751,6.565496978759766,8.061785430908204
66307,-1.0017169189453126,5.439837799072266,7.709567871093751
66372,-1.0535092163085937,5.2488349914550785,8.310119018554689
66439,-0.9524693298339845,5.589376831054688,8.009843444824218
66505,-1.1737092590332032,6.145769805908204,7.756121063232422
66572,-0.8470884704589844,6.885232086181641,7.059619445800782
66639,-0.6569837951660157,6.507717132568359,6.740183715820313
66707,-1.096769256591797,6.054010620117188,7.976013793945313
66772,-1.4612612915039063,5.494025115966797,8.297994232177734
66839,-0.9427395629882813,5.441334686279297,7.595505065917969
66906,-0.5363346862792969,6.095624084472656,7.446415100097656
66972,-1.3216017150878907,6.264023895263672,8.361761627197266
67039,-1.210682373046875,6.2315414428710945,7.200925598144532
67106,-0.8433462524414063,6.3529389953613284,6.669979705810547
67172,-0.9249266052246095,5.842650146484376,7.75552230834961
67239,-0.5405259704589844,5.940696258544922,7.595654754638672
67306,-0.3297642517089844,5.933211822509766,7.478149108886719
67372,-0.8854087829589844,5.8228912353515625,8.013585662841797
67439,-1.3849200439453127,5.913003845214844,6.898255004882813
67505,-1.0306068420410157,6.797215118408204,7.028334503173829
67572,-1.3269905090332033,6.88613021850586,8.17225570678711
67639,-1.414109344482422,6.04742431640625,9.439071350097656
67707,0.11511062622070313,5.598507843017578,7.334597625732422
67772,0.346080322265625,5.401068420410157,5.168751525878906
67839,0.8238867187500001,7.021149444580079,7.107968902587891
67906,-0.1478924560546875,6.525979156494141,9.356742553710937
67972,-2.368973693847656,5.367987213134766,8.801397399902344
68039,-2.293231201171875,5.449118499755859,8.538993072509767
68107,-1.2370275878906252,5.21874755859375,6.478677520751954
68172,0.24519012451171876,5.9323136901855476,7.229366455078125
68239,-0.7186555480957032,5.94488754272461,8.989406433105469
68306,-0.8372090148925782,5.622458038330079,8.028404846191407
68372,-0.7363188171386719,5.116210784912109,8.429720306396485
68439,-1.2180171203613281,5.217999114990235,8.197702789306641
68505,-1.8782940673828126,5.7630157470703125,7.951614532470703
68572,-1.9444564819335939,5.942791900634766,7.692054290771485
68639,-1.3599220275878907,5.397026824951173,7.9504170227050786
68707,-0.9377998352050781,5.405409393310547,8.100554809570314
68772,-1.0186317443847657,5.720354461669922,7.926466827392579
68839,-1.2259506225585939,5.380111999511719,8.266260223388672
68907,-0.7598199462890626,5.562133483886719,7.987539825439454
68972,-0.844244384765625,5.562133483886719,8.711584167480469
69039,-1.4325210571289064,4.951702880859375,8.888216857910157
69107,-0.6932084655761719,4.968318328857422,7.828271026611328
69172,-0.6453080749511719,4.574038238525391,7.938292236328126
69239,-1.1557466125488283,4.952151947021485,8.203690338134766
69307,-2.180515594482422,5.5553974914550786,8.543184356689453
69372,-2.378104705810547,5.765859832763672,8.102650451660157
69439,-1.312470703125,5.673950958251954,7.505691833496094
69505,-1.136436767578125,5.741610260009766,8.078251190185547
69572,-1.6911831665039063,5.714666290283203,8.49558334350586
69638,-1.0711724853515625,5.460494842529297,7.388485565185547
69705,-0.6153703308105469,5.859564971923828,7.948022003173828
69772,-1.3991404724121095,5.481900329589844,7.838000793457032
69839,-1.37953125,5.562582550048829,7.894882507324219
69905,-1.20469482421875,5.569617919921876,8.352929992675781
69972,-1.402134246826172,5.142406311035156,8.095615081787109
70039,-1.0707234191894532,5.5564453125,7.771539001464844
70105,-1.3018428039550782,5.601501617431641,7.843838653564453
70172,-1.4289285278320314,5.753435668945313,8.67955078125
70239,-1.4305751037597656,5.484145660400391,7.679929504394532
70306,-1.2970527648925783,5.468128967285157,7.63098129272461
70372,-1.4976356506347657,5.740712127685547,8.097261657714844
70439,-1.3983920288085938,5.598358154296875,8.183182983398439
70505,-1.021326141357422,5.470523986816406,7.931705932617188
70572,-1.290765838623047,5.292394409179688,8.126001892089844
70638,-1.7223184204101563,5.23790771484375,8.617579650878907
70706,-1.184486846923828,5.634133758544922,7.782466278076172
70772,-0.8896000671386719,5.737868041992188,7.736511840820313
70839,-1.4248869323730469,5.722899169921876,8.002359008789062
70907,-1.6983682250976564,5.451663208007813,7.912545776367188
70972,-1.293160858154297,5.685327301025391,8.124505004882813
71039,-0.7249424743652344,6.354136505126953,7.358098754882813
71106,-0.6768923950195312,5.941444702148438,7.257208557128907
71172,-1.1599378967285157,5.731581115722657,8.080646209716797
71239,-1.1464659118652345,5.858816528320313,7.975415039062501
71305,-0.861009521484375,5.920039215087891,7.665559387207032
71372,-0.9138496398925782,5.792055358886719,7.746241607666016
71438,-1.3826747131347656,5.454507293701172,7.949369201660157
71507,-1.7742604064941407,5.648952941894532,8.210426330566406
71572,-1.4597644042968752,5.925577697753907,7.6525364685058594
71639,-0.5508544921875,5.949078826904297,7.478298797607422
71707,-0.8578660583496094,5.805826721191407,7.778424682617188
71773,-1.4115646362304688,5.606890411376954,8.223748626708986
71839,-1.038091278076172,5.845045166015625,7.677684173583985
71907,-1.0256671142578127,5.778134307861328,7.715106353759766
71973,-1.3575270080566406,5.7526872253417976,8.248746643066406
72038,-1.278790740966797,5.701793060302735,7.701933746337891
72107,-0.9834548950195313,5.7330780029296875,7.809110870361328
72174,-0.9157955932617188,5.876030731201173,7.790549468994141
72239,-1.2683125305175782,5.572462005615234,7.976462860107422
72307,-1.2329859924316406,5.586383056640625,8.132588195800782
72374,-1.026415557861328,5.723048858642579,7.759713592529297
72439,-0.8529263305664063,5.807473297119141,7.718998260498047
72508,-1.349294128417969,5.254373474121094,7.57110580444336
72575,-1.3558804321289064,5.6570361328125,8.070167999267579
72639,-1.4783258056640625,5.342689819335938,8.616980895996095
72708,-1.0678793334960939,5.3634965515136726,7.921377410888672
72771,-0.8114625549316407,5.440586242675781,8.204289093017579
72838,-1.029708709716797,5.5676719665527346,8.039930877685547
72909,-1.0767109680175782,5.449118499755859,7.905809783935547
72971,-0.9542655944824219,5.552403717041016,8.160579986572266
73038,-1.1259585571289064,5.503455505371094,8.030051422119142
73105,-1.1573931884765625,5.404361572265625,8.388106842041015
73172,-0.8581654357910157,5.495671691894532,7.813451843261719
73239,-0.9930349731445313,5.440436553955078,7.891888732910156
73305,-1.1927197265625,5.543721771240235,8.286318511962891
73372,-0.9083111572265625,5.467530212402344,7.868537292480469
73439,-0.9312135314941407,5.387446746826172,8.12675033569336
73505,-1.1352392578125001,5.457351379394532,8.147557067871094
73572,-1.1695179748535156,5.383105773925782,8.177345123291015
73639,-0.8695417785644531,5.57844955444336,8.004454650878907
73705,-1.0892848205566408,5.4583992004394535,7.9608952331542975
73772,-1.212778015136719,5.331463165283203,8.525221710205079
73839,-0.9839039611816407,5.4003199768066406,7.822882232666016
73907,-0.8683442687988282,5.402864685058594,7.995173950195313
73972,-1.1762539672851564,5.548661499023438,8.13198944091797
74039,-1.0900332641601562,5.438490600585938,7.930209045410157
74107,-0.9648934936523438,5.391937408447266,8.200397186279297
74172,-1.1250604248046876,5.451663208007813,8.133336639404297
74239,-1.1256591796875,5.3667897033691405,8.110284576416015
74307,-0.8994795227050781,5.540877685546875,8.030051422119142
74372,-1.0036628723144532,5.505700836181641,7.9837976074218755
74439,-1.2030482482910156,5.4390893554687505,8.359965362548829
74505,-0.9825567626953126,5.4497172546386725,7.791148223876953
74572,-0.9668394470214844,5.3528686523437505,8.027955780029297
74639,-1.1801458740234376,5.534740447998047,8.163274383544922
74706,-1.1373348999023438,5.426066436767578,7.962092742919922
74772,-0.8511300659179688,5.503455505371094,8.24739944458008
74839,-1.0843450927734375,5.459297332763672,8.085286560058595
74907,-1.2246034240722656,5.330565032958985,8.31116683959961
74972,-0.8527766418457031,5.510191497802735,7.938441925048829
75038,-0.9958790588378906,5.547463989257813,7.859256591796876
75105,-1.1713142395019531,5.554798736572266,8.348139953613282
75172,-0.9455836486816407,5.396428070068359,7.936495971679688
75239,-1.0080038452148439,5.356461181640626,8.100554809570314
75306,-1.161434783935547,5.4989648437500005,8.062533874511718
75372,-1.0181826782226564,5.452112274169922,7.918982391357423
75439,-0.87418212890625,5.470374298095703,8.126900024414063
75505,-1.1160791015625,5.460345153808594,8.163274383544922
75571,-1.2500505065917968,5.299579467773437,8.264613647460937
75639,-0.8291258239746094,5.5095927429199225,7.826474761962891
75705,-0.9626481628417969,5.491630096435547,7.867489471435547
75772,-1.1990066528320313,5.550757141113282,8.453071746826172
75839,-0.9156459045410157,5.424120483398438,7.861651611328125
75907,-0.8951385498046875,5.380111999511719,8.09366912841797
75971,-1.1629316711425781,5.510490875244141,8.205935668945314
76039,-1.131497039794922,5.371280364990235,7.962990875244141
76107,-0.8616082763671875,5.54491928100586,8.142467651367188
76172,-1.1171269226074219,5.461542663574219,8.048912200927735
76239,-1.141077117919922,5.410498809814453,8.437953186035157
76305,-0.8419990539550781,5.444478149414063,7.714956665039063
76372,-0.9617500305175781,5.4830978393554695,7.983348541259766
76439,-1.1750564575195312,5.560187530517578,8.320597229003907
76505,-0.9455836486816407,5.455555114746094,7.827522583007813
76572,-0.8340655517578125,5.436245269775391,8.225993957519531
76639,-1.1632310485839845,5.431305541992188,8.169112243652345
76706,-1.0795550537109375,5.3844529724121095,7.967481536865235
76772,-0.7982899475097657,5.53728515625,7.96867904663086
76839,-1.005908203125,5.521418151855469,8.10190200805664
76907,-1.1894265747070314,5.3615505981445315,8.419242095947267
76972,-0.8408015441894532,5.44193344116211,7.786358184814453
77039,-1.0341993713378907,5.351970520019531,7.9661343383789065
77107,-1.131347351074219,5.617817687988282,8.308921508789062
77172,-0.8720864868164063,5.462590484619141,7.823331298828125
77238,-0.9502239990234376,5.398972778320313,8.24889633178711
77305,-1.1960128784179689,5.430407409667969,8.22734115600586
77372,-1.1035052490234376,5.367987213134766,8.081244964599609
77439,-0.8003855895996094,5.517077178955079,7.916287994384766
77505,-1.0400372314453126,5.497767333984375,8.021968231201173
77572,-1.196162567138672,5.510191497802735,8.455017700195313
77639,-0.77359130859375,5.420977020263672,7.813751220703125
77707,-1.0075547790527344,5.298681335449219,8.063432006835939
77772,-1.1922706604003908,5.521418151855469,8.221203918457032
77839,-0.9837542724609375,5.468128967285157,7.907755737304688
77905,-0.7836204528808595,5.500012664794922,8.141419830322267
77972,-1.131347351074219,5.394482116699219,8.249495086669922
78039,-1.2037966918945313,5.30541732788086,8.46833999633789
78107,-0.8425978088378907,5.438191223144532,7.763904876708985
78172,-1.0252180480957032,5.4558544921875,7.98065414428711
78239,-1.2111314392089845,5.441184997558594,8.439001007080078
78305,-0.9849517822265625,5.381908264160156,7.910300445556641
78372,-0.9520202636718751,5.272336120605469,7.960446166992188
78439,-1.1894265747070314,5.414839782714844,8.21970703125
78505,-1.107546844482422,5.386698303222657,7.9980180358886726
78572,-0.7300318908691407,5.515131225585938,8.204738159179687
78639,-1.1671229553222657,5.403613128662109,8.12585220336914
78707,-1.2988490295410158,5.214256896972657,8.527916107177735
78772,-0.8366102600097657,5.468578033447266,7.772137756347656
78839,-0.9059161376953125,5.439837799072266,7.816295928955078
78905,-1.2539424133300783,5.494773559570313,8.500074005126953
78972,-0.918340301513672,5.394781494140625,7.867339782714844
79039,-0.909957733154297,5.332211608886719,8.143814849853516
79106,-1.2337344360351563,5.420977020263672,8.14201858520508
79172,-1.1130853271484376,5.336552581787109,8.012687530517578
79238,-0.8857081604003907,5.497767333984375,8.124205627441407
79306,-1.1097921752929687,5.457501068115235,8.17465072631836
79371,-1.09931396484375,5.407804412841797,8.364605712890626
79439,-0.8515791320800782,5.396278381347656,7.91074951171875
79507,-1.2014016723632812,5.34852767944336,7.976462860107422
79572,-1.145867156982422,5.577252044677735,8.205336914062501
79639,-0.8702902221679688,5.452860717773437,7.874824218750001
79705,-0.9446855163574219,5.451663208007813,8.303682403564453
79772,-1.2479548645019531,5.370531921386719,8.140072631835938
79839,-1.0759625244140625,5.323379974365235,8.004754028320313
79909,-0.8385562133789063,5.522465972900391,8.02900360107422
79972,-1.2765454101562501,5.437592468261719,8.185128936767578
80039,-1.003213806152344,5.462440795898438,8.29440170288086
80105,-0.7598199462890626,5.405409393310547,7.66645751953125
80172,-1.180594940185547,5.3034713745117195,8.180338897705079
80239,-1.1322454833984374,5.554349670410157,8.45007797241211
80306,-0.9334588623046876,5.410648498535156,7.854765930175781
80373,-0.9056167602539062,5.513634338378907,8.068671112060548
80438,-1.234482879638672,5.4899835205078125,8.120762786865235
80505,-1.249002685546875,5.41034912109375,8.32314193725586
80574,-0.769998779296875,5.713169403076172,7.936495971679688
80639,-1.1371852111816407,5.732778625488281,7.773634643554688
80707,-1.3467494201660157,5.994284820556641,8.003406829833985
80774,-1.1918215942382813,5.741161193847656,7.405400390625
80839,-0.9476792907714844,5.893544311523438,7.7372602844238285
80908,-1.2240046691894533,6.024671630859375,7.662864990234375
80974,-1.73159912109375,5.5799464416503906,7.810757446289063
81039,-0.9473799133300782,6.260730743408203,7.361391906738282
81108,-0.6804849243164063,6.3354254150390625,7.435487823486328
81172,-1.2313394165039062,5.970484313964844,8.13198944091797
81239,-0.9861492919921876,6.062692565917969,7.778424682617188
81309,-0.7596702575683594,6.0906843566894535,7.262447662353516
81371,-1.02746337890625,6.2701611328125,7.582781524658204
81438,-0.9720785522460939,6.107748870849609,7.571255493164063
81505,-0.8940907287597657,6.006559295654297,7.553143157958985
81572,-1.0018666076660157,6.238726501464844,7.524702301025391
81639,-1.0606942749023438,6.041885833740235,7.525450744628906
81705,-0.7958949279785157,6.174210662841797,7.718399505615235
81772,-0.9527687072753906,6.2315414428710945,7.4925192260742195
81839,-1.0822494506835938,6.051316223144531,7.808362426757813
81905,-0.779578857421875,6.179000701904298,7.347620544433594
81972,-0.9129515075683594,6.0766136169433596,7.466323699951173
82039,-1.127904510498047,6.254593505859376,7.783963165283203
82105,-0.836909637451172,6.155948638916016,7.444469146728516
82172,-0.8144563293457031,6.080804901123047,7.571405181884766
82239,-1.0050100708007812,6.198460235595704,7.699838104248047
82306,-1.071471862792969,6.077661437988281,7.63577133178711
82372,-0.6797364807128906,6.241570587158203,7.422315216064454
82439,-0.9740245056152345,6.170169067382813,7.572602691650391
82505,-1.1440708923339844,6.166726226806641,7.792944488525391
82572,-0.7426057434082032,6.045029296875001,7.2810090637207034
82639,-0.8720864868164063,5.915398864746094,7.901917877197266
82707,-1.2310400390625,6.05745346069336,8.090226287841798
82772,-0.841849365234375,6.037993927001954,7.451205139160157
82839,-0.75922119140625,5.983507232666016,7.592361602783203
82907,-1.0638377380371093,6.041885833740235,7.708669738769531
82972,-1.0803034973144532,5.941893768310547,7.814349975585938
83039,-0.6782395935058594,6.158643035888672,7.3586975097656255
83107,-0.956660614013672,6.0887384033203125,7.478598175048829
83172,-1.116228790283203,6.076014862060547,8.15309555053711
83239,-0.7911048889160157,6.024222564697266,7.447013854980469
83307,-0.9312135314941407,5.922583923339844,7.486232299804688
83372,-1.0298583984375,6.163283386230469,7.82018783569336
83439,-0.9087602233886719,6.097420349121094,7.368277587890625
83505,-0.6653663635253907,6.004014587402344,7.846832427978516
83572,-1.0472222900390626,5.96644271850586,7.926017761230469
83639,-1.1597882080078126,5.938600616455078,7.905510406494141
83708,-0.6372248840332032,6.149661712646485,7.533983001708985
83772,-1.0223739624023438,6.078110504150391,8.036338348388671
83839,-1.393751678466797,6.505771179199219,7.870183868408204
83907,-0.41568557739257816,6.483916625976563,6.784192199707031
83972,-0.7728428649902345,6.497837677001954,6.0236238098144534
84039,-0.8810678100585938,6.4515838623046875,7.935597839355469
84105,-0.8764274597167969,6.136638793945313,7.629334716796875
84172,-0.08951385498046875,6.403683471679688,6.881938934326172
84239,-0.37616775512695316,6.4957420349121096,7.315437469482422
84307,-0.9048683166503907,6.28498031616211,7.951614532470703
84372,-0.7108717346191407,6.362818450927735,7.1614077758789065
84439,-0.2844085693359375,6.226002960205078,7.423213348388672
84505,-1.2017010498046876,6.576573944091797,7.830067291259766
84572,-0.7545808410644531,6.253695373535156,7.210056610107422
84639,-0.31404693603515627,6.4710433959960945,7.330556030273438
84706,-0.8896000671386719,6.5378045654296875,7.221882019042969
84772,-0.8060737609863282,6.395001525878906,7.457791442871094
84838,-0.43260040283203127,6.524781646728516,7.259753265380859
84907,-0.6953041076660157,6.566993865966797,7.063062286376954
84972,-0.7854167175292969,6.396797790527344,7.801626434326172
85039,-0.33485366821289064,6.521937561035156,7.165449371337891
85105,-0.6471043395996094,6.301595764160156,7.084467773437501
85172,-0.6447093200683595,6.708150329589844,7.448660430908204
85239,-0.5468128967285156,6.440357208251953,7.328460388183594
85307,-0.38709503173828125,6.3755419921875,7.210206298828125
85372,-0.7093748474121094,6.491850128173828,7.577392730712891
85439,-0.6445596313476563,6.2454624938964844,7.566764831542969
85505,-0.17693206787109375,6.55995849609375,7.053482208251953
85572,-0.6816824340820313,6.5863037109375,7.129075012207031
85639,-0.7981402587890626,6.391858062744141,7.753875732421875
85707,-0.4896318054199219,6.4041325378417975,7.107968902587891
85772,-0.4908293151855469,6.369404754638672,7.382498016357422
85839,-0.738863525390625,6.5433430480957036,7.584128723144532
85906,-0.5760021972656251,6.367009735107422,7.413333892822266
85972,-0.47331573486328127,6.358776855468751,7.279212799072266
86039,-0.6294410705566407,6.561605072021485,7.153773651123047
86106,-0.6393205261230469,6.264023895263672,7.866890716552735
86172,-0.4604425048828125,6.47179183959961,7.299121398925782
86239,-0.6375242614746094,6.413712615966797,6.691834259033204
86306,-0.702938232421875,6.482270050048829,7.82976791381836
86372,-0.408350830078125,6.280339965820313,7.589816894531251
86438,-0.6060896301269532,6.2454624938964844,7.271878051757813
86507,-0.7279362487792969,6.536307678222657,7.209308166503907
86572,-0.6551875305175782,6.372847595214844,7.272027740478516
86638,-0.4355941772460938,6.378535766601563,7.507787475585938
86708,-0.7595205688476563,6.451883239746094,7.483388214111328
86772,-0.683778076171875,6.279142456054688,7.752229156494141
86839,-0.4087998962402344,6.492299194335938,7.0644094848632815
86907,-0.6459068298339844,6.407425689697266,7.150630187988281
86972,-0.8797206115722657,6.648274841308594,7.568112030029297
87039,-0.49517028808593755,6.4445484924316405,7.184908905029297
87107,-0.27872039794921877,6.3951512145996094,7.153324584960938
87172,-0.8286767578125,6.4815216064453125,7.500153350830079
87239,-0.5833369445800781,6.197711791992188,7.956554260253907
87307,-0.41808059692382815,6.405330047607422,7.197632446289063
87373,-0.5812413024902344,6.542295227050782,6.975793762207031
87439,-0.7056326293945313,6.410120086669922,7.746091918945313
87505,-0.5275030517578125,6.369255065917969,7.279063110351563
87574,-0.6424639892578126,6.283034362792969,7.255861358642578
87638,-0.6345304870605469,6.556216278076172,7.506140899658203
87705,-0.5950126647949219,6.315816192626953,7.2810090637207034
87772,-0.4785548400878907,6.321204986572266,7.356601867675781
87839,-0.7488926696777344,6.3179118347167975,7.464826812744141
87907,-0.5533992004394531,6.135890350341797,8.085436248779297
87974,-0.45295806884765627,6.333329772949219,7.248676300048828
88039,-0.7948471069335938,6.352489929199219,7.353458404541016
88108,-0.809366912841797,6.294560394287109,7.821235656738281
88175,-0.3674858093261719,6.336024169921875,7.204967193603516
88239,-0.46837600708007815,6.1891795349121095,7.5628729248046875
88309,-0.9538165283203125,6.4358665466308596,7.461234283447266
88371,-0.6280938720703125,6.30608642578125,7.32920883178711
88438,-0.35206787109375004,6.287225646972656,7.452402648925782
88509,-0.7994874572753906,6.3512924194335945,7.426207122802735
88572,-0.8252339172363282,6.248755645751953,7.745193786621094
88639,-0.41987686157226567,6.355932769775391,7.124135284423828
88705,-0.5451663208007813,6.320905609130859,7.267686767578125
88772,-0.787811737060547,6.4463447570800785,7.746540985107422
88839,-0.6030958557128907,6.333329772949219,7.311844940185547
88905,-0.5354365539550782,6.142177276611329,7.483238525390625
88972,-0.6933581542968751,6.329886932373047,7.410340118408204
89039,-0.44682083129882816,6.234535217285156,7.232659606933594
89105,-0.5156776428222657,6.234535217285156,8.0616357421875
89172,-0.9178912353515626,6.133944396972656,7.655230865478516
89239,-0.6685098266601562,6.221661987304688,7.5787399291992195
89307,-0.2947370910644531,6.257437591552734,7.403155059814454
89372,-0.8030799865722656,6.0870918273925785,7.621999969482422
89439,-0.6842271423339844,6.3337788391113286,7.727829895019531
89505,-0.33859588623046877,6.281537475585938,7.103777618408204
89572,-0.4209246826171875,6.235283660888673,7.603737945556641
89639,-0.9618997192382813,6.125112762451172,7.644453277587891
89707,-0.6158193969726563,5.9761724853515625,7.329957275390625
89772,-0.06062393188476563,6.006708984375,7.541467437744141
89839,-0.7500901794433594,5.707930297851563,8.16746566772461
89906,-0.8821156311035157,5.608237609863282,8.767867126464845
89972,-0.40206390380859375,5.696703643798829,7.732320556640626
90039,-0.32482452392578126,5.640420684814454,7.695497131347657
90105,-0.7289840698242188,5.78397216796875,7.928562469482422
90172,-0.6653663635253907,5.69775146484375,8.070167999267579
90239,-0.5216651916503906,5.776338043212891,7.875422973632813
90305,-0.6400689697265626,5.878725128173828,7.768994293212891
90372,-0.6635700988769532,5.769452362060547,8.077951812744141
90439,-0.2567161560058594,5.868246917724609,7.664960632324219
90505,-0.30326934814453127,5.701942749023438,7.867938537597657
90572,-0.871787109375,5.8124130249023445,8.317603454589845
90639,-0.2465373229980469,6.190975799560547,7.254214782714844
90705,-0.4399351501464844,6.104006652832031,7.796087951660157
90772,-0.023501129150390626,6.399192810058594,7.306456146240235
90839,0.27078689575195314,6.820267181396485,7.18505859375
90906,0.6042933654785156,7.20661376953125,6.136938171386719
90972,0.7996371459960938,7.247927856445313,6.483018493652344
91039,1.251098327636719,7.641160125732422,6.227499847412109
91106,1.6591497802734376,7.621999969482422,5.433101806640625
91172,2.059267730712891,7.593409423828126,5.880072326660157
91238,1.9083815002441407,7.9484710693359375,5.7365208435058594
91306,1.7311500549316408,8.607101440429688,6.800208892822266
91372,1.4299763488769532,7.55434066772461,4.818629608154297
91439,0.8101153564453125,7.188052368164063,5.000202026367187
91505,1.9149678039550782,6.896608428955078,4.9213160705566406
91572,3.2955468750000003,12.647948455810548,2.78061767578125
91639,-0.29189300537109375,7.91359359741211,2.720592498779297
91706,0.44697052001953125,9.212292938232423,5.12579086303711
91772,0.34667907714843754,8.885672149658204,4.772974548339844
91839,0.5284011840820313,8.883277130126954,3.264112243652344
91906,0.3896397399902344,8.875044250488282,4.164639587402344
91972,0.06361770629882812,8.819659423828126,4.182452545166016
92038,-0.47136978149414066,8.546926574707031,5.019511871337891
92108,0.25387207031250003,8.939260711669922,5.2453921508789065
92172,-0.3950285339355469,8.572822723388672,4.405488739013672
92238,-0.15103591918945314,8.911568298339844,3.9811212158203126
92306,-0.11256591796875001,8.550818481445313,5.247487792968751
92372,-0.7126679992675782,9.091194763183594,4.237388305664063
92439,-1.5245796203613282,8.533753967285156,3.979474639892578
92505,-1.166224822998047,8.655450897216797,4.16299301147461
92572,-0.12169692993164063,9.372759246826172,3.9236407470703125
92638,0.17094451904296876,9.02009262084961,3.015179901123047
92707,-0.06601272583007813,8.850345611572266,3.8634658813476563
92772,-0.5977070617675782,8.833131408691406,4.151167602539063
92839,-0.6599775695800781,8.864266662597657,4.619094543457032
92905,-0.377215576171875,8.82040786743164,4.154311065673828
92972,-0.21869522094726562,8.865164794921876,4.158352661132812
93039,-0.4125421142578125,8.954229583740235,4.30385009765625
93107,-0.5189707946777344,8.698561248779297,4.256997528076172
93172,-0.36673736572265625,8.688382415771486,4.273612976074219
93239,-0.37856277465820315,8.987909545898438,4.304897918701172
93305,-0.5818400573730469,8.78448257446289,4.395160217285157
93372,-0.24908203125,8.825048217773437,4.300407257080078
93439,-0.4263134765625,8.73748031616211,4.19367919921875
93505,-0.6197113037109375,8.78059066772461,4.465364227294922
93572,-0.40161483764648437,8.805888061523438,4.265679473876953
93639,-0.3938310241699219,8.756490783691406,4.3050476074218755
93707,-0.4245172119140625,8.99135238647461,4.435426483154297
93772,-0.48529083251953126,8.645870819091797,4.226610717773438
93839,-0.3303630065917969,8.649463348388672,4.349654846191407
93905,-0.5674699401855469,8.838969268798829,4.3559417724609375
93973,-0.6581813049316406,8.75334732055664,4.3752516174316405
94039,-0.1423539733886719,8.900641021728516,4.230802001953125
94107,-0.41733215332031254,8.722661132812501,4.246669006347656
94173,-0.6361770629882812,8.777596893310548,4.470004577636719
94239,-0.38320312500000003,8.666827239990235,4.068838806152344
94306,-0.45939468383789067,8.750952301025391,4.295018463134766
94373,-0.4537065124511719,9.018446044921875,4.471651153564453
94438,-0.4463717651367188,8.720864868164062,4.204307098388672
94505,-0.35685791015625,8.683292999267579,4.371060333251953
94574,-0.5881269836425782,8.865015106201172,4.339176635742188
94639,-0.6613247680664063,8.75619140625,4.366419982910156
94708,-0.0437091064453125,8.935518493652344,4.171525268554688
94774,-0.42661285400390625,8.718769226074219,4.256997528076172
94839,-0.5358856201171875,8.90602981567383,4.499193878173829
94908,-0.31105316162109375,8.693771209716797,4.01689682006836
94972,-0.48454238891601564,8.661438446044922,4.290228424072266
95039,-0.5402265930175781,9.068142700195313,4.4315345764160154
95105,-0.3718267822265625,8.69676498413086,4.301006011962891
95171,-0.1454974365234375,8.770711212158204,4.290527801513672
95239,-0.5918692016601563,8.671617279052734,4.324656829833985
95308,-0.6225553894042969,8.746012573242188,4.419858856201172
95372,-0.09894424438476564,8.898695068359375,4.041745147705078
95439,-0.45580215454101564,8.775950317382813,4.305346984863282
95509,-0.5255570983886719,8.862620086669923,4.581822052001954
95576,-0.28635452270507816,8.70784194946289,4.036506042480469
95639,-0.45939468383789067,8.655301208496095,4.305496673583985
95705,-0.6230044555664063,8.89076156616211,4.428540802001954
95772,-0.48753616333007815,8.795409851074218,4.2966650390625
95839,-0.07259902954101563,8.824898529052735,4.237687683105469
95905,-0.48259643554687504,8.703351287841798,4.295617218017578
95972,-0.6435118103027344,8.707542572021485,4.515959014892578
96039,-0.13921051025390627,8.899742889404298,4.018094329833985
96107,-0.4752616882324219,8.745264129638672,4.2995091247558594
96172,-0.4477189636230469,8.978628845214844,4.564308471679688
96239,-0.3426374816894531,8.645571441650391,4.151317291259766
96307,-0.37137771606445313,8.649014282226563,4.4015968322753904
96372,-0.6218069458007813,8.858877868652344,4.470154266357422
96439,-0.6277944946289062,8.726103973388673,4.417164459228516
96505,-0.07918533325195314,8.902586975097657,4.294868774414063
96572,-0.45834686279296877,8.677006072998047,4.372557220458985
96639,-0.6164181518554688,8.824150085449219,4.620591430664063
96706,-0.2935395812988281,8.69526809692383,4.100872192382813
96772,-0.4776567077636719,8.713829498291016,4.327051849365235
96839,-0.5201683044433594,8.995843048095704,4.544250183105469
96907,-0.4005670166015625,8.668324127197266,4.219126281738282
96972,-0.3728746032714844,8.618028717041016,4.371509399414062
97039,-0.6343807983398437,8.708291015625,4.446204071044922
97105,-0.6589297485351563,8.689430236816406,4.396058349609375
97172,-0.012124786376953125,8.929530944824219,4.1483235168457036
97239,-0.49472122192382817,8.725804595947267,4.357588348388672
97306,-0.5954617309570313,8.791817321777344,4.606371002197266
97372,-0.26809249877929686,8.71113510131836,4.106410675048829
97439,-0.5327421569824219,8.62775848388672,4.384831695556641
97505,-0.5421725463867187,9.009015655517578,4.577630767822266
97572,-0.5004093933105469,8.732540588378907,4.304897918701172
97639,-0.12289443969726563,8.784931640625,4.327650604248047
97707,-0.5572911071777344,8.722062377929689,4.401147766113281
97772,-0.7096742248535156,8.666078796386719,4.543801116943359
97839,-0.12723541259765625,8.88118148803711,4.153113555908203
97907,-0.4751119995117188,8.779692535400391,4.318519592285156
97971,-0.45834686279296877,8.973389739990235,4.554578704833984
98039,-0.32332763671875003,8.634644165039063,4.061204681396484
98105,-0.4101470947265625,8.631650390625001,4.393363952636719
98172,-0.6020480346679687,8.860823822021485,4.4722499084472656
98239,-0.5069956970214844,8.72790023803711,4.259392547607422
98305,-0.05074447631835938,8.951235809326173,4.290078735351563
98372,-0.5011578369140626,8.74945541381836,4.2785527038574225
98439,-0.6474037170410156,8.663833465576172,4.453838195800781
98505,-0.2285746765136719,8.719367980957031,4.115391998291016
98572,-0.5810916137695313,8.727151794433594,4.2966650390625
98639,-0.41568557739257816,9.048533477783204,4.4318339538574225
98707,-0.37362304687500003,8.724008331298828,4.0742276000976565
98772,-0.3746708679199219,8.616681518554689,4.446653137207031
98839,-0.6056405639648438,8.861422576904298,4.348008270263672
98906,-0.6710545349121094,8.680748291015625,4.392016754150391
98972,-0.12903167724609377,8.93866195678711,4.239933013916016
99039,-0.45744873046875,8.761729888916015,4.2555006408691405
99106,-0.5372328186035157,8.822952575683594,4.490212554931641
99172,-0.23875350952148439,8.718469848632813,4.111649780273438
99239,-0.5938151550292969,8.59527603149414,4.3965074157714845
99307,-0.47451324462890626,9.055119781494142,4.449497222900391
99372,-0.3418890380859375,8.763975219726563,4.113446044921875
99439,-0.28021728515625,8.77101058959961,4.4015968322753904
99505,-0.4870870971679688,8.75619140625,4.376898193359375
99572,-0.7312294006347657,8.646768951416016,4.502786407470703
99639,-0.13651611328125002,8.897796936035157,4.1620948791503904
99707,-0.49636779785156254,8.79496078491211,4.284540252685547
99772,-0.4731660461425781,9.009614410400392,4.487967224121094
99839,-0.26345214843750003,8.665480041503907,4.078418884277344
99907,-0.5948629760742188,8.574319610595703,4.398153991699219
99972,-0.5803431701660157,8.898994445800781,4.455784149169922
100039,-0.5134323120117188,8.764573974609375,4.184398498535156
100105,-0.23710693359375,8.76622055053711,4.351151733398438
100172,-0.5035528564453126,8.734935607910156,4.410877532958985
100239,-0.6768923950195312,8.640631713867188,4.4598257446289065
100306,-0.14534774780273438,8.918304290771484,4.1041653442382815
100372,-0.5959107971191406,8.731043701171876,4.540208587646484
100438,-0.3914360046386719,9.004674682617187,4.475543060302734
100505,-0.2636018371582031,8.725205841064454,3.952830047607422
100572,-0.46119094848632813,8.599467315673829,4.4846740722656255
100639,-0.7009922790527344,8.86486541748047,4.62762680053711
100706,-0.45655059814453125,8.761729888916015,4.321363677978516
100772,-0.0844244384765625,8.889713745117188,4.330045623779297
100839,-0.51013916015625,8.669371948242189,4.435276794433594
100905,-0.6427633666992187,8.751101989746093,4.534670104980469
100972,-0.2998265075683594,8.732839965820313,4.188589782714844
101039,-0.508941650390625,8.737031250000001,4.308640136718751
101105,-0.4291575622558594,9.04404281616211,4.531227264404297
101172,-0.2939886474609375,8.688232727050782,4.165837097167969
101239,-0.5786965942382812,8.557554473876953,4.484823760986329
101307,-0.6659651184082032,8.727600860595704,4.445305938720703
101373,-0.5661227416992187,8.754993896484375,4.349505157470704
101439,-0.1047821044921875,8.88118148803711,4.244124298095703
101507,-0.47077102661132814,8.725205841064454,4.379592590332032
101573,-0.6318360900878907,8.709787902832032,4.535867614746094
101638,-0.36015106201171876,8.646768951416016,4.1499700927734375
101707,-0.6357279968261719,8.615933074951172,4.351451110839844
101774,-0.3704795837402344,9.019942932128906,4.466262359619141
101839,-0.38769378662109377,8.765023040771485,4.254153442382813
101907,-0.3674858093261719,8.68673583984375,4.431235198974609
101974,-0.5938151550292969,8.74750946044922,4.421505432128907
102039,-0.7117698669433594,8.636141052246094,4.404889984130859
102107,-0.12648696899414064,8.982820129394531,4.24831558227539
102175,-0.4674778747558594,8.761131134033203,4.338727569580079
102239,-0.4788542175292969,8.896749114990234,4.52224594116211
102308,-0.30132339477539066,8.670270080566407,4.172273712158203
102372,-0.6063890075683595,8.535101165771485,4.415517883300781
102439,-0.49112869262695313,8.980874176025392,4.40968002319336
102509,-0.3941304016113281,8.744216308593751,4.152365112304688
102571,-0.15402969360351562,8.882977752685548,4.428540802001954
102638,-0.5087919616699219,8.695567474365236,4.310885467529297
102709,-0.6975494384765626,8.64407455444336,4.480482788085938
102772,-0.2125579833984375,8.817563781738281,4.190086669921875
102839,-0.5384303283691406,8.786129150390625,4.351151733398438
102907,-0.46298721313476565,8.909173278808595,4.515959014892578
102972,-0.23501129150390626,8.67625762939453,4.129013671875001
103039,-0.55324951171875,8.574319610595703,4.4087818908691405
103105,-0.6063890075683595,8.772806854248048,4.376748504638672
103172,-0.5514532470703125,8.757089538574219,4.305646362304688
103239,-0.13501922607421876,8.874595184326171,4.338128814697265
103307,-0.5602848815917969,8.729097747802735,4.358336791992188
103372,-0.6153703308105469,8.688232727050782,4.471202087402344
103439,-0.19145187377929687,8.813073120117188,4.202061767578125
103505,-0.6542893981933594,8.678802337646484,4.420008544921875
103572,-0.41149429321289066,9.013506317138672,4.445455627441406
103639,-0.28036697387695314,8.649163970947265,4.1727227783203125
103706,-0.3770658874511719,8.704997863769531,4.475543060302734
103772,-0.6378236389160157,8.750802612304687,4.429289245605469
103839,-0.5613327026367188,8.673263854980469,4.40968002319336
103906,-0.11346405029296876,8.941805419921875,4.3613305664062505
103972,-0.4465214538574219,8.78298568725586,4.374652862548828
104039,-0.6402186584472657,8.683742065429687,4.555476837158204
104107,-0.3158432006835938,8.623716888427735,4.212390289306641
104172,-0.6845265197753907,8.636141052246094,4.489015045166016
104239,-0.5279521179199219,9.023385772705078,4.441713409423828
104307,-0.33784744262695315,8.715326385498047,4.212390289306641
104372,-0.39847137451171877,8.641978912353515,4.533023529052735
104439,-0.5822891235351563,8.700507202148438,4.41402099609375
104505,-0.7078779602050782,8.610693969726563,4.463717651367188
104572,-0.08607101440429688,8.892857208251954,4.224365386962891
104639,-0.5114863586425782,8.769813079833984,4.4370730590820315
104706,-0.5863307189941407,8.90423355102539,4.524042205810547
104772,-0.27153533935546875,8.638985137939454,4.145479431152344
104839,-0.6084846496582031,8.517288208007812,4.474644927978516
104906,-0.4692741394042969,8.952433319091798,4.439617767333985
104972,-0.6008505249023438,8.704548797607423,4.328548736572266
105039,-0.23456222534179688,8.851692810058594,4.458478546142579
105105,-0.49636779785156254,8.738378448486328,4.432732086181641
105172,-0.5571414184570312,8.687334594726563,4.418212280273438
105239,-0.2606080627441406,8.751101989746093,4.176165618896484
105306,-0.6457571411132813,8.709638214111328,4.38333480834961
105372,-0.42346939086914065,9.033115539550781,4.515959014892578
105439,-0.25417144775390627,8.67191665649414,4.105213165283203
105505,-0.5601351928710938,8.580456848144532,4.497996368408203
105572,-0.6111790466308594,8.757837982177735,4.457580413818359
105639,-0.6541397094726563,8.650062103271484,4.350403289794922
105707,-0.09265731811523438,8.925489349365234,4.347708892822266
105772,-0.48289581298828127,8.807983703613282,4.348157958984375
105839,-0.55803955078125,8.7609814453125,4.486769714355469
105907,-0.24578887939453126,8.679700469970703,4.158652038574219
105972,-0.6876699829101562,8.573571166992188,4.504882049560547
106039,-0.4343966674804688,9.048683166503906,4.442611541748047
106106,-0.45535308837890626,8.734935607910156,4.24636962890625
106172,-0.307760009765625,8.746012573242188,4.496349792480469
106239,-0.549656982421875,8.747060394287109,4.413272552490235
106307,-0.6608757019042969,8.621621246337892,4.456532592773438
106372,-0.15597564697265626,8.85004623413086,4.192781066894532
106439,-0.5372328186035157,8.777147827148438,4.44321029663086
106505,-0.3975732421875,9.01290756225586,4.513713684082031
106572,-0.22123992919921875,8.653355255126954,4.099524993896485
106639,-0.7086264038085938,8.51519256591797,4.47674057006836
106705,-0.5906716918945313,8.84001708984375,4.474944305419922
106772,-0.49591873168945316,8.733289031982423,4.261637878417969
106839,-0.11570938110351563,8.93626693725586,4.315974884033204
106905,-0.5098397827148438,8.779243469238281,4.429139556884766
106972,-0.5755531311035157,8.674012298583985,4.4423121643066406
107039,-0.22887405395507815,8.662635955810547,4.163442077636719
107106,-0.6194119262695312,8.682694244384766,4.360881500244141
107172,-0.45984375,9.038204956054688,4.597539367675782
107239,-0.33320709228515627,8.688681793212892,4.072730712890626
107307,-0.36434234619140626,8.66652786254883,4.510270843505859
107372,-0.6110293579101563,8.77580062866211,4.394262084960937
107438,-0.6676116943359376,8.616232452392579,4.370461578369141
107507,-0.14385086059570312,8.942703552246094,4.314178619384766
107572,-0.4808001708984375,8.769663391113282,4.3637255859375
107639,-0.4770579528808594,8.868158569335938,4.569697265625
107706,-0.2938389587402344,8.660240936279298,4.113595733642578
107772,-0.6632707214355469,8.53390365600586,4.439917144775391
107839,-0.4824467468261719,8.958869934082031,4.524491271972656
107908,-0.3703298950195313,8.719218292236329,4.17017807006836
107972,-0.22468276977539064,8.831784210205079,4.537963256835938
108039,-0.5542973327636719,8.676407318115235,4.419709167480469
108106,-0.6965016174316406,8.624016265869141,4.485422515869141
108173,-0.2513273620605469,8.76382553100586,4.2327479553222656
108239,-0.5658233642578125,8.748706970214844,4.454586639404297
108305,-0.42466690063476564,8.892557830810548,4.571044464111329
108372,-0.29234207153320313,8.619375915527344,4.180207214355469
108439,-0.699345703125,8.516539764404298,4.495451660156251
108507,-0.5236111450195313,8.943302307128906,4.43318115234375
108574,-0.4846920776367188,8.695417785644532,4.306095428466797
108638,-0.16570541381835938,8.842711486816407,4.462220764160157
108707,-0.6306385803222656,8.705596618652343,4.470004577636719
108774,-0.6182144165039063,8.672964477539063,4.487518157958984
108839,-0.17588424682617188,8.771309967041017,4.198020172119141
108907,-0.6170169067382812,8.707392883300782,4.4547363281250005
108973,-0.4237687683105469,9.054970092773438,4.559817810058594
109039,-0.264649658203125,8.652606811523437,4.2096958923339844
109108,-0.3878434753417969,8.558901672363282,4.512516174316406
109175,-0.6641688537597656,8.73942626953125,4.484823760986329
109239,-0.5878276062011719,8.673114166259767,4.4158172607421875
109308,-0.11241622924804688,8.92908187866211,4.323758697509766
109375,-0.4643344116210938,8.738528137207032,4.38049072265625
109439,-0.45999343872070314,8.881780242919922,4.515509948730469
109509,-0.338895263671875,8.61383743286133,4.148473205566407
109572,-0.692010955810547,8.589887237548828,4.43797119140625
109639,-0.5090913391113282,8.973838806152344,4.437222747802735
109709,-0.3619473266601563,8.737031250000001,4.234993286132813
109772,-0.37137771606445313,8.683292999267579,4.527485046386719
109839,-0.5617817687988281,8.680149536132813,4.4069856262207034
109905,-0.6842271423339844,8.626261596679688,4.418062591552735
109972,-0.1215472412109375,8.956624603271484,4.245621185302735
110039,-0.5251080322265625,8.760233001708984,4.361629943847657
110105,-0.4716691589355469,8.904532928466796,4.585264892578126
110172,-0.2528242492675781,8.651558990478517,4.176764373779297
110239,-0.5242098999023438,8.473429412841798,4.503834228515625
110305,-0.6027964782714844,8.944050750732423,4.475093994140625
110372,-0.5977070617675782,8.694968719482421,4.3999502563476565
110439,-0.143701171875,8.877439270019531,4.435875549316407
110505,-0.5188211059570312,8.65125961303711,4.412524108886719
110572,-0.5715115356445313,8.612190856933594,4.632716217041016
110639,-0.2221380615234375,8.73463623046875,4.3117835998535154
110705,-0.5662724304199219,8.759933624267578,4.441563720703125
110772,-0.4656816101074219,8.99464553833008,4.582869873046875
110839,-0.2751278686523438,8.598419494628907,4.248914337158204
110907,-0.5375321960449219,8.50516342163086,4.558620300292969
110972,-0.6370751953125,8.67041976928711,4.57014633178711
111039,-0.5986051940917969,8.675658874511718,4.492457885742188
111106,-0.06930587768554688,8.816216583251954,4.365671539306641
111172,-0.5020559692382813,8.682095489501954,4.446204071044922
111239,-0.6063890075683595,8.650660858154298,4.663701782226563
111305,-0.28111541748046875,8.568182373046875,4.208348693847657
111372,-0.67060546875,8.617280273437501,4.583318939208985
111439,-0.46792694091796877,8.969497833251953,4.615202636718751
111505,-0.42571472167968755,8.649463348388672,4.382137298583984
111572,-0.3442840576171875,8.594377899169922,4.614903259277344
111639,-0.6092330932617188,8.675359497070312,4.53856201171875
111707,-0.7008425903320313,8.533604278564454,4.611909484863282
111772,-0.2219883728027344,8.791517944335938,4.480333099365234
111839,-0.43798919677734377,8.671168212890626,4.568799133300781
111908,-0.5445675659179687,8.768316192626953,4.709506530761719
111972,-0.36673736572265625,8.499175872802734,4.331243133544922
112039,-0.5881269836425782,8.516988830566406,4.61565170288086
112107,-0.5589376831054688,8.797056427001953,4.803960113525391
112172,-0.47870452880859377,8.63494354248047,4.398004302978515
112239,-0.17453704833984376,8.73748031616211,4.639302520751953
112307,-0.5780978393554688,8.613538055419923,4.647685089111328
112372,-0.6866221618652344,8.488997039794922,4.671635284423829
112439,-0.27378067016601565,8.684041442871095,4.362228698730469
112505,-0.67300048828125,8.675359497070312,4.6702880859375
112572,-0.5381309509277344,8.817713470458985,4.723726959228516
112639,-0.2806663513183594,8.568930816650392,4.270918579101563
112707,-0.5719606018066407,8.453371124267578,4.652624816894532
112772,-0.661025390625,8.825497283935547,4.630919952392579
112839,-0.6818321228027344,8.576714630126954,4.472998352050782
112907,-0.13696517944335937,8.802445220947266,4.57688232421875
112972,-0.44457550048828126,8.627010040283203,4.549339599609375
113039,-0.6366261291503906,8.647068328857422,4.723726959228516
113107,-0.3279679870605469,8.587492218017578,4.348008270263672
113172,-0.6976991271972657,8.499175872802734,4.621040496826172
113239,-0.5087919616699219,8.982221374511719,4.618046722412109
113306,-0.34742752075195316,8.584947509765625,4.346062316894532
113372,-0.28351043701171874,8.585396575927735,4.718936920166016
113439,-0.647852783203125,8.623267822265625,4.638853454589844
113505,-0.7246430969238281,8.580456848144532,4.583917694091797
113572,-0.19040405273437502,8.786129150390625,4.398902435302735
113639,-0.5411247253417969,8.658744049072267,4.518354034423829
113707,-0.5185217285156251,8.683143310546875,4.705764312744141
113772,-0.3170407104492188,8.498277740478516,4.307592315673828
113839,-0.6785389709472657,8.539142761230469,4.65591796875
113907,-0.6367758178710938,8.795409851074218,4.654271392822266
113972,-0.48693740844726563,8.654253387451172,4.430636444091797
114039,-0.30910720825195315,8.634494476318359,4.707261199951172
114108,-0.5983058166503906,8.57940902709961,4.603377227783203
114172,-0.6435118103027344,8.518485717773437,4.703069915771485
114239,-0.20971389770507814,8.756490783691406,4.387975158691407
114305,-0.6523434448242188,8.608298950195312,4.628075866699219
114372,-0.41613464355468754,8.87205047607422,4.778962097167969
114438,-0.3215313720703125,8.543034667968751,4.390519866943359
114505,-0.4944218444824219,8.466244354248047,4.637057189941406
114572,-0.7152127075195313,8.724008331298828,4.740641784667969
114639,-0.7553292846679688,8.596922607421876,4.671934661865235
114707,-0.17738113403320313,8.777596893310548,4.602628784179688
114772,-0.4878355407714844,8.585396575927735,4.665647735595703
114839,-0.6387217712402344,8.645272064208985,4.783901824951172
114905,-0.3725752258300781,8.467741241455078,4.44321029663086
114972,-0.6264472961425781,8.56114700317383,4.705614624023438
115039,-0.5692662048339844,8.857380981445313,4.816084899902344
115105,-0.41044647216796876,8.550369415283203,4.560865631103516
115172,-0.5186714172363281,8.38975341796875,4.749024353027344
115239,-0.6382727050781251,8.518635406494141,4.735851745605469
115306,-0.7315287780761719,8.504414978027345,4.783602447509766
115373,-0.12723541259765625,8.776848449707032,4.4493475341796875
115439,-0.5969586181640625,8.628806304931642,4.747976531982422
115505,-0.6096821594238282,8.695717163085938,4.840035095214844
115573,-0.24264541625976563,8.46833999633789,4.442611541748047
115640,-0.7441026306152344,8.29589859008789,4.8578480529785155
115706,-0.6945556640625,8.722062377929689,4.880151672363281
115774,-0.7149133300781251,8.488847351074218,4.661606140136719
115838,-0.13846206665039062,8.930578765869141,4.484524383544922
115905,-0.44203079223632813,8.63404541015625,4.501738586425781
115974,-0.6682104492187501,8.481811981201172,4.94571533203125
116039,-0.2808160400390625,8.524173889160156,4.286186828613282
116108,-0.7439529418945313,8.241411895751954,4.827311553955078
116174,-0.7864645385742188,8.671766967773438,5.037175140380859
116239,-0.6224057006835938,8.55396194458008,4.410727844238282
116308,-0.25581802368164064,8.687035217285157,4.87865478515625
116375,-0.5550457763671875,8.642877044677736,4.758454742431641
116439,-0.6435118103027344,8.431067504882813,4.865033111572266
116508,-0.34143997192382813,8.48794921875,4.533472595214844
116573,-0.8575666809082032,8.283324737548828,4.805606689453125
116639,-0.5656736755371095,8.881031799316407,4.822521514892578
116709,-0.3487747192382813,8.594377899169922,4.515210571289063
116772,-0.3673361206054688,8.648565216064453,4.999004516601563
116838,-0.5933660888671876,8.542136535644532,4.680167541503907
116909,-0.8113128662109376,8.3681982421875,4.905299377441406
116972,-0.29413833618164065,8.620423736572267,4.525838470458985
117039,-0.8643026733398438,8.583001556396486,4.583019561767578
117105,-0.259859619140625,8.985065460205078,4.4967988586425784
117172,-0.35865417480468753,8.412057037353517,4.9582891845703125
117239,-0.5583389282226563,8.415499877929689,5.051245880126953
117305,-0.2951861572265625,8.62536346435547,4.3771975708007815
117372,-0.6888674926757813,8.23931625366211,5.098697204589844
117439,-0.6749464416503906,8.593928833007812,4.69663330078125
117505,-0.6274951171875001,8.563841400146485,4.328698425292969
117573,-0.3237767028808594,8.823401641845704,5.066514129638672
117639,-0.6189628601074219,8.44858108520508,4.680167541503907
117707,-0.36119888305664066,8.666976928710938,4.749922485351563
117772,-0.7541317749023438,8.58704315185547,4.743785247802735
117839,-0.5044509887695313,8.592581634521485,4.401447143554687
117905,-0.0520916748046875,8.861572265625,4.274361419677734
117973,-0.41852966308593753,8.704249420166017,4.295018463134766
118039,-0.2954855346679688,8.853489074707031,4.277804260253906
118106,-0.316142578125,8.913514251708985,4.278103637695312
118172,-0.45879592895507815,8.80169677734375,4.045786743164062
118239,-0.19848724365234377,9.057065734863281,4.034560089111328
118305,-0.23905288696289065,8.906329193115235,3.874842224121094
118372,-0.16256195068359375,9.080566864013672,3.813918914794922
118439,-0.2980302429199219,9.073681182861328,3.7103343200683594
118505,-0.26809249877929686,9.04449188232422,3.8672080993652345
118572,-0.2137554931640625,9.020691375732422,3.742068328857422
118639,-0.1023870849609375,9.112899627685547,3.5308575439453125
118707,-0.1490899658203125,9.201814727783203,3.687132568359375
118772,-0.4998106384277344,9.100475463867188,3.8959483337402347
118839,-0.1676513671875,9.230554962158203,3.261866912841797
118906,-0.05763015747070313,9.036558380126953,3.7149746704101565
118973,-0.12229568481445313,9.18579803466797,3.70030517578125
119039,-0.12274475097656251,9.13744857788086,3.6681221008300784
119107,-0.5252577209472656,8.883726196289063,3.8407131958007814
119172,-0.08637039184570312,9.14134048461914,3.5688784790039065
119239,-0.002245330810546875,8.647068328857422,4.1620948791503904
119307,-0.3477268981933594,8.871451721191407,4.139641571044922
119372,-0.23381378173828127,9.333241424560548,3.054548034667969
119439,0.10568023681640626,9.377698974609375,2.808160400390625
119505,0.08292755126953126,9.344468078613282,3.5331028747558597
119572,-0.6126759338378907,8.990903320312501,3.9775286865234376
119639,-0.03457809448242188,9.025930480957031,3.531306610107422
119708,-0.4167333984375,9.075926513671876,4.687352600097657
119772,-0.5893244934082031,9.026978302001954,4.27271484375
119839,-0.018262023925781252,8.416248321533203,4.357588348388672
119906,-0.40670425415039063,8.321046295166017,4.460274810791016
119972,-0.4601431274414063,8.755742340087892,3.9200482177734375
120039,-0.1347198486328125,9.087003479003906,4.002227325439454
120105,-0.028291168212890627,9.342821502685547,4.52419189453125
120172,-1.149459686279297,8.253536682128907,4.68750228881836
120239,-0.6325845336914063,8.265511779785157,4.873715057373047
120306,-0.5125341796875,8.453221435546876,4.906945953369141
120373,-0.009580078125,8.641380157470703,4.8103967285156255
120439,-0.06077362060546875,8.231831817626954,4.609813842773438
120505,-0.3541635131835938,8.137527923583985,4.896467742919922
120572,-0.13307327270507813,8.362061004638672,3.3326696777343754
120639,-1.1714639282226562,10.13811767578125,5.777685241699219
120707,-1.791324920654297,8.789571990966797,6.0308088684082035
120773,0.23860382080078127,7.757617950439453,3.6883300781250004
120839,1.249002685546875,8.071515197753907,4.050127716064454
120907,-0.8855584716796876,8.788823547363283,5.100194091796875
120972,-1.79865966796875,8.78343475341797,5.261708221435547
121039,-0.7478448486328125,8.34993621826172,5.469775543212891
121106,-0.8101153564453125,7.725285186767579,6.765630798339844
121172,-1.5780184936523438,7.038812713623047,6.644532623291016
121239,-0.23456222534179688,7.965086517333985,4.11943359375
121305,0.00389190673828125,8.571774902343751,4.0230340576171875
121372,-1.1624826049804688,8.861123199462892,5.079087982177735
121439,-1.2280462646484376,8.473279724121094,5.209616546630859
121505,-0.16375946044921877,8.668324127197266,4.330943756103516
121572,0.24084915161132814,8.408763885498047,4.53377197265625
121638,-1.0359956359863283,8.108338623046876,5.6785913085937505
121707,-1.22625,7.9590989685058595,5.9374031066894535
121772,-1.373543701171875,8.277786254882812,6.1505598449707035
121839,-1.3596226501464845,7.793094177246094,5.817053375244141
121907,-0.10942245483398438,7.8498262023925784,4.561763763427734
121972,-0.18681152343750002,8.337212677001954,4.786596221923828
122039,-0.5505551147460938,8.988208923339844,4.9900231933593755
122106,-1.071771240234375,8.365204467773438,5.284909973144532
122172,-1.1804452514648438,8.004005584716797,5.3157458496093755
122239,-1.217867431640625,7.643405456542969,5.246889038085937
122305,-1.3380674743652345,8.184979248046876,5.73173080444336
122372,-1.0880873107910156,8.04097869873047,5.828579406738282
122439,-0.5809419250488281,7.971822509765626,5.100194091796875
122507,-0.3757186889648438,8.497080230712891,4.7309120178222654
122572,-0.6966513061523438,8.577762451171875,5.448819122314453
122639,-1.191222839355469,8.223299560546875,4.803660736083985
122706,-0.29832962036132815,8.725654907226563,4.996160430908203
122772,-0.57719970703125,8.441695404052735,5.7507412719726565
122839,-0.978365478515625,7.835456085205078,5.593119049072266
122907,-0.5114863586425782,7.637118530273438,4.765340423583985
122972,-0.30416748046875003,8.503965911865235,4.960235137939454
123039,-0.9630972290039063,8.51908447265625,5.680088195800781
123107,-0.7638615417480469,8.41175765991211,5.2594628906250005
123172,-0.7450007629394532,8.080646209716797,5.074297943115234
123239,-1.4864089965820313,8.014932861328125,5.337899780273438
123305,-1.5151492309570314,8.668922882080079,5.942492523193359
123372,-1.0195298767089844,8.546178131103517,5.077591094970703
123439,-0.17034576416015626,8.199648742675782,5.055287475585938
123507,-1.0202783203125,7.845335540771485,5.656736755371094
123572,-0.6833290100097656,7.9626914978027346,5.37202880859375
123639,-0.39532791137695317,7.962990875244141,5.251978454589844
123707,-0.8455915832519532,8.024512939453125,5.762566680908203
123773,-1.3930032348632813,7.888296203613281,5.575455780029297
123839,-0.9804611206054688,7.917335815429688,5.027445373535157
123907,-0.6780899047851563,8.327931976318359,5.479205932617187
123973,-1.0066566467285156,8.287066955566406,5.677244110107422
124039,-1.1451187133789062,8.029302978515625,5.7648120117187505
124106,-1.0792556762695313,7.814349975585938,5.361999664306641
124172,-0.8614585876464844,7.922275543212891,5.760321350097657
124238,-1.0578501892089844,7.9748162841796875,5.658383331298828
124307,-0.25042922973632814,8.23168212890625,4.978347473144532
124374,-0.5387297058105469,8.170010375976563,5.5446199035644534
124439,-1.3500425720214844,8.523275756835938,5.463937683105469
124507,-1.2150233459472657,7.901917877197266,4.939877471923828
124572,-0.884959716796875,7.425159301757813,6.007457427978516
124639,-1.6664845275878908,8.274193725585938,6.508465576171876
124708,-1.6426840209960938,8.348738708496095,4.851710815429688
124773,-0.04176315307617188,8.240513763427735,5.13731689453125
124839,-1.3431568908691407,7.814499664306641,6.424789581298828
124908,-1.2289443969726563,7.927065582275391,5.627846832275391
124972,-0.39712417602539063,8.010741577148439,4.994214477539063
125038,-1.2849279785156251,7.93993881225586,6.100713500976563
125106,-1.1018586730957032,8.143365783691406,5.724994812011719
125172,-0.6923103332519531,7.887398071289063,5.428162078857422
125238,-1.1237132263183593,7.8727285766601565,5.890251159667969
125309,-1.0819500732421876,7.972421264648438,5.719007263183594
125372,-1.1174263000488283,7.938591613769532,5.887107696533203
125439,-0.7563771057128906,8.098758544921875,5.512137451171875
125505,-1.0021659851074218,7.96149398803711,5.571713562011719
125572,-1.06578369140625,8.060887298583985,5.543272705078126
125639,-0.8521778869628907,8.001311187744141,5.263504486083985
125705,-0.9708810424804688,8.147557067871094,5.5420751953125
125772,-0.8328680419921876,8.17614761352539,5.4742662048339845
125839,-0.7702981567382813,7.97781005859375,5.386548614501954
125905,-0.9313632202148437,8.061036987304687,5.504503326416016
125973,-1.0291099548339844,8.383466491699219,5.3651431274414065
126039,-1.0078541564941408,8.214767303466797,5.411396942138672
126105,-0.8803193664550781,8.098459167480469,5.356910247802735
126172,-0.7921527099609376,8.200546875,5.171146545410156
126239,-0.7792794799804688,8.400830383300782,4.920867004394531
126306,-0.6471043395996094,8.518934783935547,4.923711090087891
126372,-0.6735992431640625,8.36385726928711,5.105582885742188
126439,-0.8578660583496094,8.237969055175782,5.144651641845703
126505,-0.8370593261718751,8.459208984375,4.962181091308594
126572,-0.7170089721679688,8.465046844482423,5.067112884521484
126639,-0.6445596313476563,8.450227661132812,5.03912109375
126708,-0.8595126342773438,8.265811157226564,4.841382293701172
126772,-0.8809181213378907,8.303233337402345,4.9900231933593755
126839,-0.6797364807128906,8.567134552001953,5.118306427001953
126907,-0.7116201782226563,8.37298828125,5.001399536132813
126972,-0.7659571838378907,8.231981506347656,5.110821990966797
127039,-0.8795709228515626,8.422984313964845,5.052742767333984
127106,-0.9584568786621094,8.391699371337891,5.075345764160157
127172,-0.5637277221679687,8.398734741210937,5.105882263183594
127239,-0.8187973022460938,8.248447265625,5.1301318359375
127305,-0.9662406921386719,8.28048065185547,5.131329345703125
127372,-0.6468049621582032,8.460406494140626,4.961133270263672
127439,-0.7247927856445313,8.30727493286133,5.102589111328125
127505,-0.8054750061035156,8.38870559692383,5.211712188720703
127572,-0.7822732543945313,8.245154113769532,4.9404762268066404
127639,-0.8780740356445313,8.242459716796876,5.120252380371094
127707,-0.7761360168457032,8.5454296875,5.196893005371094
127772,-0.7926017761230469,8.248447265625,5.014721832275391
127839,-0.7421566772460938,8.220455474853516,5.0868717956542975
127907,-0.8803193664550781,8.327931976318359,5.111869812011719
127972,-0.8578660583496094,8.353079681396485,5.213957519531251
128039,-0.5469625854492188,8.421936492919922,5.111869812011719
128107,-0.858464813232422,8.198750610351563,5.090763702392579
128172,-1.0063572692871094,8.289911041259765,5.215005340576172
128239,-0.6619235229492187,8.479866027832031,5.012326812744141
128307,-0.8027806091308595,8.361761627197266,5.037624206542969
128372,-0.8110134887695313,8.259224853515626,5.216202850341797
128439,-0.8199948120117188,8.225245513916017,4.92700424194336
128505,-0.8467890930175782,8.361162872314454,5.093308410644531
128573,-0.7300318908691407,8.55785385131836,5.12294677734375
128639,-0.7694000244140625,8.228688354492188,4.980892181396484
128707,-0.8957373046875,8.215665435791015,5.1555789184570315
128773,-0.88855224609375,8.31266372680664,5.064268798828126
128839,-0.8231382751464844,8.402476959228515,5.023852844238282
128907,-0.6122268676757813,8.344996490478517,5.09944564819336
128972,-0.8246351623535156,8.219257965087891,5.082979888916016
