timestamp,AccX,AccY,AccZ
1748972101949,1.6350498962402344,8.858129425048828,4.237837371826172
1748972101971,1.447639617919922,9.126371612548828,3.699856109619141
1748972102038,0.8322692871093751,9.107660522460938,3.327879638671875
1748972102104,0.9231303405761719,9.066795501708985,3.802841949462891
1748972102171,3.111280059814453,7.163503417968751,8.892857208251954
1748972102238,3.0852342224121094,7.177574157714844,6.392007751464844
1748972102304,1.8693127441406252,7.436385955810548,4.983586578369141
1748972102371,3.481011199951172,8.416847076416015,5.176984405517579
1748972102439,3.886667633056641,5.771697692871094,2.9428802490234376
1748972102504,6.452781372070313,5.543721771240235,5.661975860595703
1748972102571,2.213147735595703,4.62044174194336,1.3250445556640627
1748972102638,-2.977608032226563,4.255051574707031,2.441572723388672
1748972102704,-4.508474578857422,6.7473687744140625,8.478219451904298
1748972102770,-5.575455780029297,5.520220642089844,7.17308349609375
1748972102839,-2.8428881835937503,4.264182586669922,11.037447509765625
1748972102904,-0.047900390625000004,2.8801606750488284,11.21542739868164
1748972102971,0.4800517272949219,1.8628761291503908,12.6600732421875
1748972103038,0.6617738342285157,1.4480886840820313,10.559341735839844
1748972103104,0.980610809326172,0.5312452697753907,9.130562896728517
1748972103171,0.9604028320312501,0.6737489318847657,10.932964782714844
1748972103240,-0.0041912841796875,1.1801458740234376,7.828121337890625
1748972103304,0.17199234008789063,0.17573455810546876,10.175839233398438
1748972103371,1.2463082885742187,-0.11780502319335938,9.675429840087892
1748972103438,0.5701643371582031,0.1574725341796875,9.181906127929688
1748972103504,0.8619076538085938,-0.3896397399902344,9.021888885498047
1748972103571,0.24444168090820315,-0.25192611694335937,10.395432586669923
1748972103640,0.6156697082519531,-0.24803421020507813,7.49686019897461
1748972103704,0.34623001098632816,-0.03457809448242188,9.703421630859376
1748972103771,0.34982254028320314,-0.022752685546875002,9.699080657958985
1748972103840,0.21555175781250002,-0.08562194824218751,9.721084899902344
1748972103904,0.2805166625976563,-0.05254074096679688,9.703721008300782
1748972103971,0.2951861572265625,-0.04071533203125,9.708361358642579
1748972104038,0.3112028503417969,-0.042361907958984375,9.697733459472657
1748972104104,0.3323089599609375,-0.0389190673828125,9.710457000732422
1748972104171,0.30865814208984377,-0.033679962158203125,9.711654510498047
1748972104239,0.2977308654785156,-0.044307861328125,9.700727233886719
1748972104304,0.23067031860351564,-0.07439529418945313,9.705068206787109
1748972104371,-0.013921051025390626,-0.1119671630859375,9.6998291015625
1748972104439,0.06271957397460938,-0.07349716186523438,9.725575561523438
1748972104504,0.228724365234375,-0.03622467041015625,9.708511047363281
1748972104570,0.32407608032226565,-0.045205993652343755,9.701775054931641
1748972104641,0.3345542907714844,-0.04101470947265625,9.704768829345703
1748972104704,0.3534150695800781,-0.025297393798828127,9.699978790283204
1748972104771,0.3692820739746094,-0.019908599853515625,9.707912292480469
1748972104840,0.36778518676757815,-0.02484832763671875,9.692793731689454
1748972104904,0.36673736572265625,-0.032332763671875,9.698481903076173
1748972104971,0.36673736572265625,-0.02365081787109375,9.688452758789063
1748972105039,0.35940261840820314,-0.028590545654296876,9.69548812866211
1748972105104,0.33979339599609376,-0.03143463134765625,9.701325988769531
1748972105171,0.33709899902343754,-0.027393035888671875,9.698332214355469
1748972105239,0.34563125610351564,-0.02963836669921875,9.70027816772461
1748972105304,0.3538641357421875,0.010627899169921875,9.693691864013672
1748972105371,0.35835479736328124,-0.026195526123046875,9.700427856445312
1748972105438,0.3534150695800781,-0.04026626586914063,9.705217895507813
1748972105504,0.3561094665527344,-0.016615447998046876,9.69264404296875
1748972105571,0.32841705322265624,-0.03861968994140625,9.701176300048829
1748972105640,0.36434234619140626,-0.035326538085937505,9.701325988769531
1748972105704,0.3770658874511719,-0.024099884033203126,9.691745910644531
1748972105771,0.358055419921875,-0.02903961181640625,9.69788314819336
1748972105840,0.3406915283203125,-0.030237121582031252,9.697583770751953
1748972105904,0.33769775390625,-0.0161663818359375,9.682914276123048
1748972105971,0.3239263916015625,-0.042810974121093755,9.70027816772461
1748972106038,0.3309617614746094,-0.04266128540039063,9.705217895507813
1748972106104,0.36164794921875004,-0.01466949462890625,9.695338439941407
1748972106171,0.35700759887695316,-0.056582336425781254,9.71315139770508
1748972106238,0.35042129516601567,-0.019908599853515625,9.702972564697266
1748972106304,0.33440460205078126,-0.04146377563476563,9.713750152587892
1748972106371,0.3276686096191406,-0.061072998046875,9.725575561523438
1748972106438,0.32302825927734374,-0.0431103515625,9.705367584228517
1748972106504,0.3043171691894531,-0.038769378662109374,9.713450775146486
1748972106571,0.3062631225585938,-0.04819976806640625,9.707762603759766
1748972106638,0.3788621520996094,-0.029488677978515627,9.695637817382813
1748972106704,0.3680845642089844,-0.018112335205078125,9.700128479003906
1748972106771,0.3345542907714844,-0.037571868896484374,9.696086883544922
1748972106840,0.365240478515625,-0.018262023925781252,9.689949645996094
1748972106934,0.2866539001464844,-0.04924758911132813,9.699380035400392
1748972106971,0.42047561645507814,-0.01916015625,9.69743408203125
1748972107040,0.38035903930664067,-0.04056564331054688,9.709109802246095
1748972107104,0.30222152709960937,-0.04700225830078125,9.707163848876954
1748972107171,0.44846740722656253,-0.026794281005859375,9.695637817382813
1748972107238,0.3523672485351563,-0.021106109619140626,9.696685638427734
1748972107304,0.3224295043945313,-0.03562591552734375,9.714348907470704
1748972107371,0.33560211181640626,-0.022004241943359377,9.701176300048829
1748972107440,0.33829650878906253,-0.04206253051757813,9.70267318725586
1748972107504,0.32946487426757814,-0.037272491455078126,9.701625366210939
1748972107571,0.32946487426757814,-0.03397933959960937,9.715995483398437
1748972107641,0.3246748352050781,-0.037122802734375,9.71464828491211
1748972107704,0.34637969970703125,-0.03697311401367188,9.693691864013672
1748972107771,0.33799713134765624,-0.036074981689453126,9.706415405273438
1748972107839,0.34443374633789064,-0.032332763671875,9.69788314819336
1748972107904,0.33859588623046877,-0.025147705078125002,9.694440307617189
1748972107971,0.3320095825195313,-0.031734008789062504,9.70267318725586
1748972108039,0.3438349914550781,-0.00868194580078125,9.707612915039062
1748972108104,0.34203872680664066,-0.03742218017578125,9.701924743652345
1748972108192,0.35131942749023437,-0.026794281005859375,9.70746322631836
1748972108237,0.34637969970703125,-0.014070739746093752,9.699978790283204
1748972108304,0.35221755981445313,-0.03817062377929688,9.70746322631836
1748972108371,-0.3405418395996094,-1.4923965454101564,9.69743408203125
1748972108437,-0.1926493835449219,0.6093827819824219,7.537425842285157
1748972108504,0.08038284301757813,-3.027604064941406,9.565857696533204
1748972108571,-0.025596771240234375,-0.6426136779785157,9.994416503906251
1748972108638,1.0240205383300782,-0.15911911010742188,9.516909484863282
1748972108704,0.3745211791992188,-0.632135467529297,9.5657080078125
1748972108771,-0.6295907592773438,0.6140231323242188,10.087522888183594
1748972108838,-0.38619689941406254,-0.03742218017578125,9.435478820800782
1748972108904,-0.6819818115234375,0.950673065185547,9.705666961669923
1748972108971,-1.761387176513672,-0.0031434631347656253,9.766290893554688
1748972109039,-0.7798782348632813,0.7554789733886719,9.769883422851564
1748972109104,1.85135009765625,0.300574951171875,8.76771743774414
1748972109171,2.3538551330566406,0.016615447998046876,9.462123413085939
1748972109240,1.1018586730957032,-0.5758525085449219,10.065069580078125
1748972109304,2.3213726806640627,-0.4417314147949219,9.14134048461914
1748972109371,7.120243377685547,-3.8336778259277344,9.819280700683594
1748972109439,0.21555175781250002,-0.09145980834960937,9.663305053710937
1748972109504,0.13367202758789062,-0.042810974121093755,9.709109802246095
1748972109571,0.18411712646484377,-0.052989807128906254,9.697583770751953
1748972109639,0.12903167724609377,-0.046253814697265624,9.664951629638672
1748972109704,0.19010467529296876,-0.06032455444335938,9.700427856445312
1748972109771,0.18426681518554688,-0.04700225830078125,9.693991241455079
1748972109844,0.1922003173828125,-0.05358856201171875,9.695787506103516
1748972109904,0.18950592041015626,-0.04206253051757813,9.708960113525391
1748972109971,0.20432510375976565,-0.0473016357421875,9.725874938964845
1748972110041,0.19474502563476564,-0.04445755004882813,9.701625366210939
1748972110104,0.19788848876953127,-0.049097900390625004,9.706116027832032
1748972110171,0.19669097900390625,-0.04176315307617188,9.717192993164064
1748972110239,0.183218994140625,-0.04999603271484375,9.706265716552736
1748972110304,0.17558486938476564,-0.0496966552734375,9.705367584228517
1748972110371,0.1802252197265625,-0.06077362060546875,9.722132720947267
1748972110438,0.173638916015625,-0.04176315307617188,9.692943420410156
1748972110504,0.18561401367187502,-0.049097900390625004,9.711055755615234
1748972110571,0.1802252197265625,-0.046702880859375004,9.695637817382813
1748972110638,0.18142272949218752,-0.05239105224609375,9.69593719482422
1748972110704,0.18217117309570313,-0.047151947021484376,9.710606689453126
1748972110771,0.1824705505371094,-0.05478607177734375,9.710457000732422
1748972110839,0.173638916015625,-0.0431103515625,9.683962097167969
1748972110904,0.1742376708984375,-0.04535568237304688,9.704768829345703
1748972110971,0.18636245727539064,-0.07319778442382813,9.698481903076173
1748972111041,0.228724365234375,-0.06391708374023437,9.730365600585937
1748972111104,0.2597099304199219,-0.037272491455078126,9.840536499023438
1748972111171,0.23980133056640626,-0.037122802734375,9.729766845703125
1748972111239,0.20926483154296877,-0.05239105224609375,9.712253265380859
1748972111304,0.21405487060546877,-0.049097900390625004,9.715546417236329
1748972111371,0.17753082275390625,-0.0437091064453125,9.69309310913086
1748972111439,0.13651611328125002,-0.05179229736328125,9.674232330322265
1748972111504,0.2751278686523438,0.026195526123046875,9.759554901123048
1748972111571,0.15911911010742188,-0.11720626831054688,9.686806182861329
1748972111643,0.05313949584960938,-0.025147705078125002,9.65043182373047
1748972111704,0.15193405151367187,-0.04685256958007813,9.69159622192383
1748972111771,0.16615447998046876,-0.04894821166992188,9.688901824951172
1748972111839,0.17199234008789063,-0.027093658447265627,9.698182525634767
1748972111931,0.1772314453125,-0.05718109130859375,9.704619140625
1748972111971,0.19923568725585938,-0.04819976806640625,9.716294860839843
1748972112037,0.1874102783203125,-0.051043853759765626,9.71704330444336
1748972112104,0.192799072265625,-0.0568817138671875,9.699380035400392
1748972112170,0.16091537475585938,-0.04026626586914063,9.704469451904297
1748972112240,0.18411712646484377,-0.04101470947265625,9.716594238281251
1748972112304,0.18830841064453127,-0.060923309326171876,9.709558868408203
1748972112371,0.18995498657226564,-0.0568817138671875,9.714947662353516
1748972112441,0.1824705505371094,-0.022602996826171878,9.694589996337891
1748972112504,0.19055374145507814,-0.047900390625000004,9.719737701416015
1748972112571,0.16360977172851562,-0.04296066284179688,9.68351303100586
1748972112661,0.20058288574218752,-0.05837860107421875,9.706565093994142
1748972112704,0.1682501220703125,-0.041912841796875,9.70551727294922
1748972112770,0.1778302001953125,-0.038020935058593754,9.696535949707032
1748972112839,0.19145187377929687,-0.06002517700195313,9.717642059326172
1748972112904,0.1945953369140625,-0.0508941650390625,9.712552642822265
1748972112971,0.18172210693359375,-0.046403503417968756,9.704918518066407
1748972113039,0.18920654296875,-0.05403762817382813,9.704768829345703
1748972113104,0.20447479248046876,-0.04685256958007813,9.705666961669923
1748972113171,0.19160156250000002,-0.0473016357421875,9.71030731201172
1748972113239,0.1742376708984375,-0.038470001220703126,9.689350891113282
1748972113498,0.2022294616699219,-0.054636383056640626,9.719288635253907
1748972113504,0.2022294616699219,-0.054636383056640626,9.719288635253907
1748972113571,0.17318984985351563,-0.045056304931640624,9.70267318725586
1748972113737,0.18112335205078126,-0.0461041259765625,9.707313537597656
1748972113851,0.18052459716796876,-0.05703140258789063,9.721084899902344
1748972113927,0.19414627075195315,-0.045505371093750004,9.730215911865235
1748972114077,0.17378860473632812,-0.047451324462890625,9.704319763183594
1748972114104,0.19489471435546876,-0.04939727783203125,9.71030731201172
1748972114171,0.197589111328125,-0.051043853759765626,9.712103576660157
1748972114239,0.19504440307617188,-0.041912841796875,9.708960113525391
1748972114304,0.1884580993652344,-0.04445755004882813,9.706116027832032
1748972114381,0.188009033203125,-0.055085449218750006,9.710606689453126
1748972114437,0.19100280761718752,-0.052690429687500005,9.713001708984375
1748972114504,0.18351837158203127,-0.045056304931640624,9.717342681884766
1748972114571,0.19788848876953127,-0.04775070190429688,9.715546417236329
1748972114638,0.197589111328125,-0.023201751708984378,9.730365600585937
1748972114704,0.20627105712890625,-0.062120819091796876,9.710756378173828
1748972114771,0.18755996704101563,-0.04655319213867188,9.698332214355469
1748972114839,0.178428955078125,-0.052241363525390626,9.70746322631836
1748972114904,0.18291961669921875,-0.05433700561523438,9.71315139770508
1748972114971,0.18007553100585938,-0.04580474853515625,9.700427856445312
1748972115041,0.17753082275390625,-0.0520916748046875,9.706565093994142
1748972115104,0.19788848876953127,-0.0628692626953125,9.720935211181642
1748972115171,0.18621276855468752,-0.04685256958007813,9.707163848876954
1748972115238,0.17872833251953127,-0.05284011840820313,9.706864471435548
1748972115304,0.19908599853515627,-0.06810836791992188,9.697733459472657
1748972115371,0.17753082275390625,-0.06182144165039063,9.704319763183594
1748972115438,0.1730401611328125,-0.06361770629882812,9.698332214355469
1748972115504,0.17408798217773438,-0.047601013183593756,9.69593719482422
1748972115571,0.164058837890625,-0.042810974121093755,9.688003692626953
1748972115638,0.1526824951171875,-0.041613464355468754,9.691446533203125
1748972115704,0.16420852661132812,-0.0425115966796875,9.700876922607423
1748972115771,0.18950592041015626,-0.0520916748046875,9.66674789428711
1748972115839,0.18696121215820313,-0.04221221923828125,9.689650268554688
1748972115904,0.14744338989257813,-0.044756927490234376,9.653575286865236
1748972115971,0.1621128845214844,-0.050295410156250005,9.687255249023439
1748972116039,0.18770965576171875,-0.04879852294921875,9.697134704589844
1748972116104,0.18681152343750002,-0.04221221923828125,9.687105560302735
1748972116171,0.18007553100585938,-0.046403503417968756,9.694589996337891
1748972116239,0.18935623168945315,-0.0389190673828125,9.705816650390625
1748972116304,0.2417472839355469,-0.08352630615234376,9.77302688598633
1748972116371,0.21001327514648438,-0.025596771240234375,9.70746322631836
1748972116439,0.19893630981445312,-0.0389190673828125,9.694440307617189
1748972116504,0.20327728271484377,-0.04805007934570313,9.708061981201173
1748972116571,0.15597564697265626,-0.03787124633789063,9.681417388916016
1748972116638,0.17184265136718752,-0.041912841796875,9.693542175292968
1748972116704,0.17019607543945314,-0.05059478759765625,9.69264404296875
1748972116771,0.17483642578125,-0.034727783203125,9.693991241455079
1748972116839,0.17977615356445314,-0.0401165771484375,9.695787506103516
1748972116927,0.1778302001953125,-0.045954437255859376,9.704768829345703
1748972116971,0.178428955078125,-0.030386810302734376,9.709558868408203
1748972117039,0.17678237915039063,-0.047151947021484376,9.70701416015625
1748972117104,0.19115249633789064,-0.035326538085937505,9.706864471435548
1748972117171,0.188009033203125,-0.0544866943359375,9.706265716552736
1748972117239,0.1838177490234375,-0.0383203125,9.694889373779297
1748972117304,0.1926493835449219,-0.0496966552734375,9.707163848876954
1748972117371,0.18621276855468752,-0.0461041259765625,9.714797973632812
1748972117438,0.1926493835449219,-0.03622467041015625,9.700876922607423
1748972117504,0.1866618347167969,-0.046253814697265624,9.68875213623047
1748972117571,0.17797988891601563,-0.053887939453125006,9.69264404296875
1748972117639,0.18681152343750002,-0.04939727783203125,9.71180419921875
1748972117704,0.1772314453125,-0.020507354736328125,9.712402954101563
1748972117771,0.1754351806640625,-0.04700225830078125,9.68306396484375
1748972117838,0.1633103942871094,-0.029788055419921876,9.688602447509766
1748972117904,0.1872605895996094,-0.06301895141601563,9.704319763183594
1748972117971,0.18426681518554688,-0.05014572143554688,9.70596633911133
1748972118039,0.17573455810546876,-0.04700225830078125,9.692344665527344
1748972118104,0.17693206787109375,-0.043858795166015624,9.709708557128907
1748972118171,0.19474502563476564,-0.07499404907226563,9.716743927001954
1748972118239,0.21046234130859376,-0.05478607177734375,9.724378051757814
1748972118304,0.20252883911132813,-0.039966888427734375,9.718390502929688
1748972118371,0.1836680603027344,-0.06616241455078126,9.705816650390625
1748972118438,0.18875747680664062,-0.01107696533203125,9.692793731689454
1748972118504,0.18232086181640625,-0.05957611083984375,9.716294860839843
1748972118571,0.19025436401367188,-0.052690429687500005,9.712852020263673
1748972118639,0.16570541381835938,-0.021106109619140626,9.701625366210939
1748972118704,0.18531463623046876,-0.05239105224609375,9.704469451904297
1748972118771,0.18336868286132812,-0.04939727783203125,9.698930969238281
1748972118839,0.18471588134765626,-0.041912841796875,9.702074432373047
1748972118905,0.20941452026367188,-0.044008483886718755,9.664951629638672
1748972118971,0.19474502563476564,-0.06182144165039063,9.705068206787109
1748972119039,0.17887802124023439,-0.03143463134765625,9.706265716552736
1748972119104,0.1874102783203125,-0.049846343994140625,9.679022369384766
1748972119171,0.16301101684570313,-0.05059478759765625,9.70027816772461
1748972119239,0.1886077880859375,-0.0383203125,9.701625366210939
1748972119304,0.1850152587890625,-0.03562591552734375,9.701924743652345
1748972119371,0.18516494750976564,-0.03308120727539063,9.684560852050781
1748972119438,0.17199234008789063,-0.032482452392578125,9.696236572265626
1748972119504,0.16585510253906252,-0.03906875610351563,9.703421630859376
1748972119571,0.18561401367187502,-0.03457809448242188,9.712852020263673
1748972119639,0.17139358520507814,-0.024399261474609375,9.68351303100586
1748972119704,0.16001724243164064,-0.006436614990234376,9.696236572265626
1748972119771,0.17483642578125,-0.0383203125,9.701625366210939
1748972119840,0.192799072265625,-0.03263214111328125,9.716145172119141
1748972119904,0.18232086181640625,-0.020806732177734377,9.692943420410156
1748972119971,0.19354751586914062,-0.04700225830078125,9.707762603759766
1748972120040,0.18172210693359375,-0.030835876464843752,9.697134704589844
1748972120104,0.19145187377929687,-0.03278182983398438,9.704918518066407
1748972120171,0.1932481384277344,-0.032482452392578125,9.693691864013672
1748972120239,0.18456619262695315,-0.026794281005859375,9.695787506103516
1748972120304,0.1818717956542969,-0.022902374267578126,9.695787506103516
1748972120371,0.18696121215820313,-0.042810974121093755,9.70417007446289
1748972120438,0.18067428588867188,-0.022752685546875002,9.690398712158204
1748972120504,0.20013381958007814,-0.026794281005859375,9.690847778320313
1748972120571,0.188009033203125,-0.029937744140625,9.700727233886719
1748972120640,0.19983444213867188,-0.030686187744140628,9.712852020263673
1748972120704,0.19444564819335938,-0.030686187744140628,9.701625366210939
1748972120771,0.18336868286132812,-0.043559417724609376,9.706714782714844
1748972120839,0.18127304077148437,-0.027393035888671875,9.689650268554688
1748972120904,0.19160156250000002,-0.041613464355468754,9.701775054931641
1748972120971,0.20193008422851563,-0.028889923095703127,9.719588012695313
1748972121039,0.137713623046875,-0.026943969726562503,9.667496337890626
1748972121104,0.17663269042968752,-0.03667373657226563,9.698182525634767
1748972121172,0.18037490844726564,-0.05403762817382813,9.692045288085938
1748972121239,0.1920506286621094,-0.04999603271484375,9.697733459472657
1748972121304,0.20312759399414063,-0.0532891845703125,9.708960113525391
1748972121371,0.19294876098632813,-0.03263214111328125,9.699080657958985
1748972121438,0.1790277099609375,-0.051492919921875005,9.694290618896485
1748972121504,0.18935623168945315,-0.056133270263671875,9.704619140625
1748972121571,0.20058288574218752,-0.03382965087890625,9.706714782714844
1748972121639,0.1818717956542969,-0.051043853759765626,9.70596633911133
1748972121704,0.18770965576171875,-0.05179229736328125,9.702523498535157
1748972121771,0.1898052978515625,-0.046403503417968756,9.708211669921875
1748972121840,0.1836680603027344,-0.04805007934570313,9.694889373779297
1748972121934,0.18097366333007814,-0.037721557617187505,9.692344665527344
1748972121971,0.19115249633789064,-0.04924758911132813,9.71135513305664
1748972122040,0.17378860473632812,-0.03667373657226563,9.690997467041017
1748972122104,0.19669097900390625,-0.05044509887695313,9.706265716552736
1748972122171,0.17154327392578125,-0.03861968994140625,9.69743408203125
1748972122244,0.17513580322265626,-0.045205993652343755,9.679770812988282
1748972122304,0.17453704833984376,-0.03667373657226563,9.692045288085938
1748972122371,0.17558486938476564,-0.03697311401367188,9.699529724121094
1748972122441,0.19489471435546876,-0.037721557617187505,9.686057739257812
1748972122504,0.19728973388671875,-0.03457809448242188,9.689500579833984
1748972122577,0.20552261352539064,-0.04954696655273438,9.720635833740236
1748972122637,0.18606307983398437,-0.034129028320312504,9.70701416015625
1748972122704,0.17274078369140625,-0.031284942626953124,9.687854003906251
1748972122771,0.17274078369140625,-0.05059478759765625,9.681866455078126
1748972122838,0.1872605895996094,-0.04775070190429688,9.696086883544922
1748972122905,0.17857864379882812,-0.03861968994140625,9.685009918212891
1748972122971,0.18905685424804688,-0.038470001220703126,9.704768829345703
1748972123038,0.18082397460937502,-0.04954696655273438,9.703721008300782
1748972123104,0.1790277099609375,-0.045954437255859376,9.681716766357422
1748972123172,0.18471588134765626,-0.03682342529296875,9.692494354248048
1748972123239,0.17992584228515626,-0.0449066162109375,9.699230346679688
1748972123304,0.18157241821289063,-0.03861968994140625,9.699080657958985
1748972123371,0.1836680603027344,-0.040415954589843754,9.690398712158204
1748972123440,0.16540603637695314,-0.04924758911132813,9.70312225341797
1748972123504,0.168848876953125,-0.051492919921875005,9.685758361816406
1748972123572,0.19384689331054689,-0.0484991455078125,9.688003692626953
1748972123639,0.18127304077148437,-0.0484991455078125,9.700128479003906
1748972123704,0.1818717956542969,-0.04296066284179688,9.693691864013672
1748972123771,0.18636245727539064,-0.049097900390625004,9.691745910644531
1748972123840,0.1728904724121094,-0.0413140869140625,9.687704315185547
1748972123904,0.16121475219726564,-0.039517822265625,9.691446533203125
1748972123972,0.17947677612304688,-0.049846343994140625,9.696236572265626
1748972124039,0.17917739868164062,-0.053887939453125006,9.695637817382813
1748972124105,0.17468673706054688,-0.03502716064453125,9.700876922607423
1748972124171,0.17483642578125,-0.04999603271484375,9.680519256591797
1748972124239,0.17633331298828125,-0.045056304931640624,9.695188751220703
1748972124304,0.1669029235839844,-0.036374359130859374,9.695338439941407
1748972124372,0.1790277099609375,-0.05912704467773438,9.685309295654298
1748972124438,0.168848876953125,-0.049846343994140625,9.679022369384766
1748972124504,0.17588424682617188,-0.053887939453125006,9.686357116699218
1748972124571,0.17648300170898437,-0.03981719970703125,9.700427856445312
1748972124639,0.18755996704101563,-0.0532891845703125,9.704768829345703
1748972124705,0.18681152343750002,-0.0413140869140625,9.698930969238281
1748972124772,0.18396743774414062,-0.045056304931640624,9.702822875976564
1748972124838,0.17648300170898437,-0.0437091064453125,9.679471435546876
1748972124904,0.1776805114746094,-0.0556842041015625,9.69593719482422
1748972124972,0.19100280761718752,-0.044756927490234376,9.68875213623047
1748972125040,0.17079483032226564,-0.0473016357421875,9.690099334716797
1748972125104,0.17154327392578125,-0.0461041259765625,9.692943420410156
1748972125172,0.18396743774414062,-0.042361907958984375,9.698631591796875
1748972125245,0.178428955078125,-0.047601013183593756,9.687704315185547
1748972125304,0.1830693054199219,-0.05403762817382813,9.704020385742188
1748972125372,0.1686991882324219,-0.047601013183593756,9.694290618896485
1748972125439,0.18007553100585938,-0.042361907958984375,9.68979995727539
1748972125504,0.17648300170898437,-0.05074447631835938,9.688901824951172
1748972125571,0.19968475341796876,-0.0431103515625,9.695039062500001
1748972125639,0.14190490722656252,-0.022752685546875002,9.668544158935548
1748972125704,0.1531315612792969,-0.060174865722656255,9.682016143798828
1748972125771,0.20492385864257814,-0.051043853759765626,9.714797973632812
1748972125840,0.21046234130859376,-0.044307861328125,9.712253265380859
1748972125904,0.21315673828125,-0.0688568115234375,9.71270233154297
1748972125972,0.18142272949218752,-0.038020935058593754,9.681417388916016
1748972126041,0.15492782592773438,-0.046403503417968756,9.68111801147461
1748972126104,0.1431024169921875,-0.055085449218750006,9.701475677490235
1748972126172,0.1782792663574219,-0.047451324462890625,9.694739685058595
1748972126241,0.14938934326171877,-0.04206253051757813,9.696236572265626
1748972126305,0.1836680603027344,-0.050295410156250005,9.695338439941407
1748972126372,0.2472857666015625,-0.08382568359375,9.69593719482422
1748972126441,0.19160156250000002,-0.042810974121093755,9.724527740478516
1748972126504,0.3203338623046875,-0.06870712280273437,9.104816436767578
1748972126572,0.29593460083007816,-0.19654129028320313,9.489965515136719
1748972126641,0.28695327758789063,-0.370030517578125,9.842632141113281
1748972126704,0.15762222290039063,-0.12678634643554687,9.859996032714845
1748972126771,0.429906005859375,-0.00209564208984375,9.623787231445313
1748972126839,0.5861810302734375,0.04221221923828125,10.033036193847657
1748972126932,0.14400054931640627,0.02125579833984375,9.630223846435547
1748972126972,0.22498214721679688,-0.07918533325195314,9.72662338256836
1748972127042,0.02844085693359375,-0.38619689941406254,9.578281860351563
1748972127105,-1.8440153503417969,-0.8479866027832031,9.713001708984375
1748972127171,0.4209246826171875,-2.226170654296875,11.798464965820314
1748972127239,1.1265573120117187,0.052690429687500005,10.734627227783204
1748972127305,1.4925462341308595,-0.5077441406250001,10.30142807006836
1748972127371,3.9152581787109377,-2.815046081542969,9.768685913085937
1748972127439,3.882925415039063,0.5297483825683594,10.28900390625
1748972127505,0.5291496276855469,1.265917510986328,8.858279113769532
1748972127571,-1.973346405029297,2.3224205017089843,9.577533416748047
1748972127639,-4.193529510498047,2.519410858154297,10.40441390991211
1748972127704,-2.963836669921875,-0.1770817565917969,8.864266662597657
1748972127771,-2.525548095703125,-0.2701881408691406,7.3639366149902346
1748972127839,-2.0639080810546875,-0.30686187744140625,10.659483489990235
1748972127904,-0.25102798461914066,0.33799713134765624,9.399553527832031
1748972127971,0.38634658813476563,-0.10253677368164063,9.74249038696289
1748972128039,0.21465362548828126,-0.04580474853515625,9.705068206787109
1748972128104,0.25102798461914066,-0.05643264770507813,9.708960113525391
1748972128171,0.26659561157226563,-0.05523513793945313,9.70746322631836
1748972128239,0.24623794555664064,-0.046702880859375004,9.705217895507813
1748972128304,0.2597099304199219,-0.05598358154296875,9.711654510498047
1748972128371,0.26315277099609374,-0.06002517700195313,9.706415405273438
1748972128438,0.2496807861328125,-0.05014572143554688,9.702822875976564
1748972128504,0.27647506713867187,-0.04580474853515625,9.705816650390625
1748972128571,0.2667453002929688,-0.0544866943359375,9.709409179687501
1748972128639,0.27273284912109375,-0.05254074096679688,9.698930969238281
1748972128704,0.26539810180664064,-0.04834945678710938,9.708361358642579
1748972128771,0.1874102783203125,-0.049097900390625004,9.72572525024414
1748972128839,0.2594105529785156,-0.07379653930664062,9.726922760009765
1748972128904,0.17962646484375,-0.04176315307617188,9.703571319580078
1748972128971,0.26764343261718754,-0.05957611083984375,9.712103576660157
1748972129039,0.2839595031738281,-0.04296066284179688,9.715546417236329
1748972129104,0.2652484130859375,-0.05912704467773438,9.693841552734375
1748972129171,0.35356475830078127,-0.08098159790039063,9.712253265380859
1748972129241,0.2856060791015625,-0.0461041259765625,9.71419921875
1748972129305,0.2980302429199219,-0.06601272583007813,9.70417007446289
1748972129371,0.2770738220214844,-0.05164260864257813,9.70701416015625
1748972129440,0.2996768188476563,-0.04805007934570313,9.700427856445312
1748972129504,0.29114456176757814,-0.047451324462890625,9.706714782714844
1748972129571,0.3052153015136719,-0.05194198608398438,9.713899841308594
1748972129639,0.2977308654785156,-0.0431103515625,9.70701416015625
1748972129704,0.29234207153320313,-0.05194198608398438,9.710906066894532
1748972129771,0.3100053405761719,-0.043559417724609376,9.700727233886719
1748972129840,0.29069549560546876,-0.0508941650390625,9.717342681884766
1748972129904,0.29847930908203124,-0.061072998046875,9.699679412841798
1748972129971,0.2734812927246094,-0.04101470947265625,9.706714782714844
1748972130039,0.30326934814453127,-0.0461041259765625,9.70267318725586
1748972130104,0.31255004882812504,-0.05239105224609375,9.699080657958985
1748972130171,0.2947370910644531,-0.0532891845703125,9.711055755615234
1748972130240,0.29219238281250004,-0.040415954589843754,9.705367584228517
1748972130305,0.29952713012695314,-0.051043853759765626,9.696086883544922
1748972130371,0.3074606323242188,-0.056282958984375006,9.70985824584961
1748972130441,0.30147308349609375,-0.03577560424804688,9.704319763183594
1748972130504,0.27033782958984376,-0.05074447631835938,9.707163848876954
1748972130571,0.2859054565429688,-0.05673202514648438,9.699978790283204
1748972130641,0.28291168212890627,-0.04535568237304688,9.700577545166016
1748972130705,0.29713211059570316,-0.05673202514648438,9.704469451904297
1748972130771,0.27767257690429686,-0.0580792236328125,9.704619140625
1748972130841,0.27303222656250004,-0.045205993652343755,9.705217895507813
1748972130904,0.26225463867187504,-0.06182144165039063,9.709409179687501
1748972130971,0.2692900085449219,-0.03667373657226563,9.700727233886719
1748972131042,0.28755203247070316,-0.05358856201171875,9.699978790283204
1748972131104,0.30371841430664065,-0.0580792236328125,9.709558868408203
1748972131171,0.26000930786132814,-0.060474243164062504,9.708211669921875
1748972131242,0.28635452270507816,-0.046253814697265624,9.698332214355469
1748972131304,0.22842498779296877,-0.08008346557617188,9.728120269775392
1748972131371,0.3403921508789063,-0.01676513671875,9.685758361816406
1748972131440,0.31883697509765624,-0.015867004394531252,9.702224121093751
1748972131504,0.26914031982421877,-0.0437091064453125,9.716294860839843
1748972131571,0.3261717224121094,-0.03936813354492188,9.707612915039062
1748972131640,0.27842102050781253,-0.08906478881835939,9.740544433593751
1748972131704,0.3320095825195313,-0.026494903564453127,9.706415405273438
1748972131771,0.25462051391601564,-0.08247848510742188,9.743238830566407
1748972131840,0.298179931640625,-0.031734008789062504,9.70417007446289
1748972131928,0.3309617614746094,-0.037122802734375,9.721683654785156
1748972131971,0.32946487426757814,-0.03158432006835938,9.71854019165039
1748972132042,0.26240432739257813,-0.06691085815429688,9.733209686279297
1748972132104,0.3170407104492188,-0.04805007934570313,9.720635833740236
1748972132171,0.31943572998046876,-0.03382965087890625,9.724827117919922
1748972132241,0.3043171691894531,-0.05059478759765625,9.72467742919922
1748972132304,0.2800675964355469,-0.05882766723632813,9.730365600585937
1748972132371,0.27497817993164064,-0.05942642211914063,9.725276184082032
1748972132440,0.2808160400390625,-0.0473016357421875,9.72662338256836
1748972132504,0.28156448364257813,-0.04819976806640625,9.717642059326172
1748972132571,0.2932402038574219,-0.04445755004882813,9.73096435546875
1748972132638,0.2844085693359375,-0.05583389282226563,9.73096435546875
1748972132704,0.29054580688476567,-0.050295410156250005,9.720935211181642
1748972132772,0.29144393920898437,-0.04026626586914063,9.710457000732422
1748972132839,0.29832962036132815,-0.04655319213867188,9.716594238281251
1748972132904,0.26599685668945316,-0.07858657836914062,9.741891632080078
1748972132972,0.277822265625,-0.0676593017578125,9.729467468261719
1748972133043,0.28306137084960936,-0.06256988525390625,9.727521514892578
1748972133105,0.3047662353515625,-0.038020935058593754,9.715396728515625
1748972133172,0.28410919189453127,-0.04924758911132813,9.711055755615234
1748972133240,0.30147308349609375,-0.05179229736328125,9.71180419921875
1748972133305,0.29368927001953127,-0.05014572143554688,9.713899841308594
1748972133372,0.2944377136230469,-0.05673202514648438,9.720037078857422
1748972133441,0.3104544067382813,-0.027692413330078127,9.701176300048829
1748972133505,0.2878514099121094,-0.042810974121093755,9.714797973632812
1748972133572,0.2951861572265625,-0.049097900390625004,9.722432098388673
1748972133640,0.2980302429199219,-0.03787124633789063,9.712402954101563
1748972133704,0.29069549560546876,-0.05433700561523438,9.720635833740236
1748972133772,0.29728179931640625,-0.05358856201171875,9.72138427734375
1748972133840,0.300574951171875,-0.06511459350585938,9.731114044189454
1748972133905,0.30072463989257814,-0.037571868896484374,9.71464828491211
1748972133972,0.2839595031738281,-0.05478607177734375,9.730215911865235
1748972134038,0.31150222778320313,-0.03906875610351563,9.711953887939453
1748972134105,0.30761032104492186,-0.041613464355468754,9.722432098388673
1748972134172,0.30296997070312504,-0.03427871704101563,9.708660736083985
1748972134243,0.30072463989257814,-0.047900390625000004,9.72662338256836
1748972134305,0.3052153015136719,-0.04340972900390625,9.724378051757814
1748972134372,0.30805938720703124,-0.028291168212890627,9.711504821777345
1748972134441,0.2884501647949219,-0.06436614990234375,9.727371826171876
1748972134505,0.2881507873535156,-0.050295410156250005,9.725276184082032
1748972134572,0.3113525390625,-0.039218444824218754,9.719737701416015
1748972134641,0.31823822021484377,-0.03906875610351563,9.722881164550781
1748972134705,0.29847930908203124,-0.04535568237304688,9.722432098388673
1748972134772,0.3107537841796875,-0.0496966552734375,9.711205444335938
1748972134841,0.28994705200195314,-0.04954696655273438,9.728719024658204
1748972134905,0.2986289978027344,-0.04580474853515625,9.731712799072266
1748972134972,0.30716125488281254,-0.044307861328125,9.728719024658204
1748972135041,0.26494903564453126,-0.07409591674804687,9.73575439453125
1748972135104,0.3112028503417969,-0.029189300537109376,9.709259490966797
1748972135172,0.29608428955078125,-0.025147705078125002,9.709109802246095
1748972135244,0.28111541748046875,-0.06586303710937501,9.743687896728517
1748972135304,0.3143463134765625,-0.038020935058593754,9.719288635253907
1748972135372,0.267044677734375,-0.07020401000976563,9.728868713378906
1748972135438,0.2724334716796875,-0.0580792236328125,9.721234588623048
1748972135505,0.2812651062011719,-0.06361770629882812,9.727371826171876
1748972135572,0.29608428955078125,-0.04206253051757813,9.72183334350586
1748972135641,0.2847079467773438,-0.04819976806640625,9.72422836303711
1748972135704,0.29234207153320313,-0.03667373657226563,9.701625366210939
1748972135772,0.30716125488281254,-0.038470001220703126,9.710906066894532
1748972135840,0.2944377136230469,-0.05134323120117188,9.718390502929688
1748972135904,0.2582130432128906,-0.082628173828125,9.74144256591797
1748972135972,0.295784912109375,-0.05179229736328125,9.725276184082032
1748972136039,0.2989283752441406,-0.055384826660156254,9.723030853271485
1748972136104,0.30716125488281254,-0.04999603271484375,9.717642059326172
1748972136172,0.2912942504882813,-0.05478607177734375,9.713301086425782
1748972136241,0.25776397705078125,-0.0508941650390625,9.716594238281251
1748972136304,0.34503250122070317,-0.03547622680664063,9.702972564697266
1748972136372,0.3129991149902344,-0.0712518310546875,9.710457000732422
1748972136441,0.29264144897460936,-0.05957611083984375,9.704020385742188
1748972136504,0.2932402038574219,-0.057779846191406255,9.714797973632812
1748972136572,0.3119512939453125,-0.049846343994140625,9.696835327148438
1748972136640,0.30386810302734374,-0.04206253051757813,9.699230346679688
1748972136705,0.2935395812988281,-0.04999603271484375,9.70551727294922
1748972136772,0.30132339477539066,-0.04894821166992188,9.69698501586914
1748972136838,0.3016227722167969,-0.04655319213867188,9.690847778320313
1748972136928,0.29309051513671874,-0.046253814697265624,9.698930969238281
1748972136972,0.2986289978027344,-0.056133270263671875,9.69878128051758
1748972137042,0.30446685791015626,-0.04221221923828125,9.69593719482422
1748972137104,0.2986289978027344,-0.04700225830078125,9.693841552734375
1748972137172,0.30491592407226564,-0.0383203125,9.688602447509766
1748972137241,0.29264144897460936,-0.052989807128906254,9.698332214355469
1748972137304,0.3070115661621094,-0.048648834228515625,9.69743408203125
1748972137372,0.3010240173339844,-0.04071533203125,9.700577545166016
1748972137441,0.29788055419921877,-0.047900390625000004,9.692943420410156
1748972137505,0.2954855346679688,-0.05179229736328125,9.698481903076173
1748972137572,0.3034190368652344,-0.04924758911132813,9.700727233886719
1748972137641,0.2884501647949219,-0.0496966552734375,9.703721008300782
1748972137704,0.31030471801757814,-0.036374359130859374,9.696386260986328
1748972137772,0.295784912109375,-0.04685256958007813,9.700427856445312
1748972137841,0.2989283752441406,-0.050295410156250005,9.70312225341797
1748972137904,0.2977308654785156,-0.05239105224609375,9.695637817382813
1748972137972,0.29713211059570316,-0.0473016357421875,9.694739685058595
1748972138044,0.27812164306640624,-0.0544866943359375,9.709708557128907
1748972138105,0.3180885314941406,-0.03682342529296875,9.694589996337891
1748972138172,0.30566436767578126,-0.042361907958984375,9.696535949707032
1748972138240,0.3031196594238281,-0.04026626586914063,9.70596633911133
1748972138305,0.3065625,-0.041613464355468754,9.69788314819336
1748972138372,0.2824626159667969,-0.06960525512695313,9.712852020263673
1748972138441,0.3150947570800781,-0.04565505981445313,9.69698501586914
1748972138504,0.29788055419921877,-0.05403762817382813,9.698332214355469
1748972138572,0.305364990234375,-0.04086502075195313,9.692793731689454
1748972138640,0.3107537841796875,-0.03742218017578125,9.695787506103516
1748972138705,0.30296997070312504,-0.05194198608398438,9.697134704589844
1748972138772,0.3008743286132813,-0.04879852294921875,9.69743408203125
1748972138840,0.28800109863281254,-0.048648834228515625,9.703271942138672
1748972138904,0.27542724609375,-0.04565505981445313,9.708511047363281
1748972138972,0.28380981445312503,-0.06032455444335938,9.713750152587892
1748972139038,0.31030471801757814,-0.047451324462890625,9.695787506103516
1748972139105,0.30192214965820313,-0.036524047851562505,9.698631591796875
1748972139172,0.3001258850097656,-0.0401165771484375,9.697134704589844
1748972139240,0.30895751953125,-0.038769378662109374,9.69548812866211
1748972139305,0.2806663513183594,-0.06586303710937501,9.718091125488282
1748972139372,0.3242257690429688,-0.04206253051757813,9.696086883544922
1748972139441,0.29264144897460936,-0.05763015747070313,9.701475677490235
1748972139505,0.29832962036132815,-0.051043853759765626,9.705367584228517
1748972139572,0.2686912536621094,-0.06915618896484375,9.716444549560547
1748972139644,0.27452911376953126,-0.05179229736328125,9.709409179687501
1748972139704,0.2962339782714844,-0.03592529296875,9.700128479003906
1748972139772,0.30446685791015626,-0.05119354248046875,9.705367584228517
1748972139839,0.27991790771484376,-0.05748046875,9.714049530029298
1748972139904,0.27273284912109375,-0.05433700561523438,9.701625366210939
1748972139972,0.28725265502929687,-0.04879852294921875,9.694440307617189
1748972140038,0.29713211059570316,-0.04805007934570313,9.698182525634767
1748972140105,0.27572662353515626,-0.06631210327148437,9.713899841308594
1748972140172,0.3016227722167969,-0.04221221923828125,9.691296844482423
1748972140242,0.2992277526855469,-0.03113525390625,9.688452758789063
1748972140304,0.28830047607421877,-0.06481521606445313,9.69743408203125
1748972140372,0.3046165466308594,-0.04460723876953125,9.694889373779297
1748972140441,0.2903961181640625,-0.05074447631835938,9.699230346679688
1748972140504,0.28455825805664064,-0.0592767333984375,9.708061981201173
1748972140572,0.33560211181640626,-0.06631210327148437,9.723928985595704
1748972140641,0.31210098266601566,-0.03577560424804688,9.695787506103516
1748972140704,0.28306137084960936,-0.044008483886718755,9.717342681884766
1748972140772,0.28725265502929687,-0.052241363525390626,9.704619140625
1748972140841,0.2900967407226563,-0.05643264770507813,9.699679412841798
1748972140904,0.2896476745605469,-0.06152206420898438,9.70701416015625
1748972140972,0.2954855346679688,-0.041912841796875,9.696386260986328
1748972141041,0.2903961181640625,-0.0544866943359375,9.71988739013672
1748972141104,0.29758117675781254,-0.049846343994140625,9.6998291015625
1748972141172,0.29294082641601565,-0.046702880859375004,9.696086883544922
1748972141241,0.29653335571289063,-0.04805007934570313,9.709109802246095
1748972141305,0.2998265075683594,-0.053438873291015626,9.709409179687501
1748972141372,0.29593460083007816,-0.04535568237304688,9.700727233886719
1748972141441,0.2662962341308594,-0.058528289794921876,9.702822875976564
1748972141504,0.288599853515625,-0.04326004028320313,9.713001708984375
1748972141572,0.305364990234375,-0.05403762817382813,9.715396728515625
1748972141640,0.2856060791015625,-0.049846343994140625,9.70596633911133
1748972141704,0.2927911376953125,-0.05583389282226563,9.703421630859376
1748972141772,0.28770172119140625,-0.04879852294921875,9.709259490966797
1748972141841,0.2710862731933594,-0.056133270263671875,9.70596633911133
1748972141931,0.2836601257324219,-0.039517822265625,9.704469451904297
1748972141972,0.28770172119140625,-0.04939727783203125,9.718390502929688
1748972142042,0.2999761962890625,-0.06301895141601563,9.708660736083985
1748972142104,0.28455825805664064,-0.058528289794921876,9.717642059326172
1748972142172,0.28770172119140625,-0.051043853759765626,9.715097351074219
1748972142239,0.2980302429199219,-0.055085449218750006,9.727820892333986
1748972142304,0.28740234375,-0.06735992431640625,9.706864471435548
1748972142372,0.2932402038574219,-0.053738250732421874,9.708810424804687
1748972142438,0.3016227722167969,-0.05433700561523438,9.701775054931641
1748972142504,0.29219238281250004,-0.054636383056640626,9.697134704589844
1748972142572,0.2856060791015625,-0.05523513793945313,9.713001708984375
1748972142641,0.29713211059570316,-0.04775070190429688,9.709259490966797
1748972142705,0.29608428955078125,-0.046253814697265624,9.705666961669923
1748972142772,0.3050656127929688,-0.047900390625000004,9.70312225341797
1748972142841,0.3028202819824219,-0.04834945678710938,9.704768829345703
1748972142905,0.288599853515625,-0.052241363525390626,9.708660736083985
1748972142972,0.30416748046875003,-0.043559417724609376,9.703271942138672
1748972143042,0.29054580688476567,-0.05194198608398438,9.70746322631836
1748972143104,0.30147308349609375,-0.05059478759765625,9.693542175292968
1748972143172,0.29593460083007816,-0.047451324462890625,9.697583770751953
1748972143239,0.2962339782714844,-0.051492919921875005,9.707762603759766
1748972143305,0.27991790771484376,-0.0568817138671875,9.703721008300782
1748972143372,0.3062631225585938,-0.04655319213867188,9.696386260986328
1748972143440,0.30910720825195315,-0.03547622680664063,9.701176300048829
1748972143505,0.2956352233886719,-0.052989807128906254,9.697733459472657
1748972143572,0.28351043701171874,-0.06556365966796876,9.713001708984375
1748972143641,0.27812164306640624,-0.06077362060546875,9.710906066894532
1748972143705,0.30222152709960937,-0.045954437255859376,9.701475677490235
1748972143772,0.3023712158203125,-0.04101470947265625,9.692045288085938
1748972143841,0.295784912109375,-0.045505371093750004,9.693542175292968
1748972143905,0.3034190368652344,-0.05074447631835938,9.702972564697266
1748972143972,0.27542724609375,-0.06721023559570313,9.711654510498047
1748972144043,0.30222152709960937,-0.05583389282226563,9.70027816772461
1748972144105,0.29788055419921877,-0.04819976806640625,9.701325988769531
1748972144172,0.28650421142578125,-0.05703140258789063,9.702972564697266
1748972144241,0.28380981445312503,-0.0568817138671875,9.699080657958985
1748972144305,0.307760009765625,-0.05194198608398438,9.695188751220703
1748972144372,0.2998265075683594,-0.04326004028320313,9.6998291015625
1748972144438,0.2992277526855469,-0.052989807128906254,9.685608673095704
1748972144505,0.29309051513671874,-0.0664617919921875,9.704469451904297
1748972144572,0.28231292724609375,-0.053738250732421874,9.700128479003906
1748972144641,0.2942880249023438,-0.05912704467773438,9.701026611328125
1748972144705,0.3158432006835938,-0.034727783203125,9.700727233886719
1748972144772,0.31284942626953127,-0.06376739501953126,9.712402954101563
1748972144840,0.2998265075683594,-0.05313949584960938,9.695338439941407
1748972144905,0.26689498901367187,-0.06122268676757813,9.708960113525391
1748972144972,0.28919860839843753,-0.04700225830078125,9.698182525634767
1748972145039,0.29832962036132815,-0.052241363525390626,9.699679412841798
1748972145104,0.2932402038574219,-0.0508941650390625,9.702523498535157
1748972145172,0.2721340942382813,-0.05119354248046875,9.706565093994142
1748972145241,0.28680358886718754,-0.0676593017578125,9.707313537597656
1748972145305,0.2716850280761719,-0.06586303710937501,9.716444549560547
1748972145372,0.3347039794921875,-0.028291168212890627,9.69788314819336
1748972145441,0.31090347290039066,-0.034877471923828125,9.698032836914063
1748972145505,0.30177246093750004,-0.04580474853515625,9.704918518066407
1748972145572,0.288599853515625,-0.061072998046875,9.708361358642579
1748972145638,0.2927911376953125,-0.04101470947265625,9.71464828491211
1748972145705,0.2927911376953125,-0.05673202514648438,9.715995483398437
1748972145772,0.28770172119140625,-0.03861968994140625,9.706265716552736
1748972145841,0.30611343383789064,-0.060474243164062504,9.711953887939453
1748972145905,0.3158432006835938,-0.0401165771484375,9.689500579833984
1748972145972,0.31374755859375003,-0.05987548828125,9.707163848876954
1748972146041,0.317340087890625,-0.05164260864257813,9.715097351074219
1748972146105,0.29832962036132815,-0.0688568115234375,9.712552642822265
1748972146172,0.2582130432128906,-0.053438873291015626,9.7189892578125
1748972146241,0.2628533935546875,-0.050295410156250005,9.702972564697266
1748972146305,0.29234207153320313,-0.038769378662109374,9.697583770751953
1748972146372,0.2748284912109375,-0.07978408813476563,9.718091125488282
1748972146439,0.31030471801757814,-0.04176315307617188,9.69548812866211
1748972146505,0.2785707092285156,-0.06421646118164062,9.712253265380859
1748972146572,0.2986289978027344,-0.06391708374023437,9.703421630859376
1748972146639,0.44068359375000005,-0.05403762817382813,9.717941436767578
1748972146705,0.32302825927734374,-0.08562194824218751,9.71030731201172
1748972146772,0.30790969848632815,-0.047151947021484376,9.700128479003906
1748972146841,0.32257919311523436,-0.0568817138671875,9.71749237060547
1748972146927,0.24998016357421876,-0.060923309326171876,9.707762603759766
1748972146972,0.3249742126464844,-0.06346801757812501,9.718091125488282
1748972147041,0.31225067138671875,-0.05643264770507813,9.702822875976564
1748972147105,0.2724334716796875,-0.06331832885742188,9.71315139770508
1748972147172,0.28740234375,-0.054636383056640626,9.705068206787109
1748972147241,0.3023712158203125,-0.05433700561523438,9.709259490966797
1748972147305,0.25626708984375,-0.05987548828125,9.713750152587892
1748972147372,0.24159759521484375,-0.07200027465820313,9.720635833740236
1748972147440,0.2752775573730469,-0.025746459960937502,9.707912292480469
1748972147505,0.29458740234375,-0.036524047851562505,9.700727233886719
1748972147572,0.2938389587402344,-0.045505371093750004,9.709409179687501
1748972147641,0.29219238281250004,-0.0496966552734375,9.717342681884766
1748972147705,0.2896476745605469,-0.03338058471679688,9.702523498535157
1748972147772,0.3016227722167969,-0.03143463134765625,9.703870697021484
1748972147840,0.3050656127929688,-0.08846603393554688,9.710906066894532
1748972147905,0.35042129516601567,-0.039218444824218754,9.709558868408203
1748972147972,0.2763253784179688,-0.086220703125,9.73904754638672
1748972148041,0.3020718383789063,-0.04340972900390625,9.694140930175783
1748972148105,0.2597099304199219,-0.08083190917968751,9.728269958496094
1748972148172,0.31329849243164065,-0.022004241943359377,9.69069808959961
1748972148238,0.31524444580078126,-0.0413140869140625,9.715097351074219
1748972148305,0.3047662353515625,-0.06032455444335938,9.715097351074219
1748972148372,0.29054580688476567,-0.042810974121093755,9.71704330444336
1748972148440,0.26584716796875,-0.03158432006835938,9.704319763183594
1748972148505,0.3016227722167969,-0.023800506591796878,9.69264404296875
1748972148572,0.26300308227539065,-0.09580078125000001,9.72617431640625
1748972148640,0.33904495239257815,-0.02305206298828125,9.687554626464845
1748972148705,0.26180557250976566,-0.07469467163085938,9.720785522460938
1748972148772,0.28830047607421877,-0.02664459228515625,9.700427856445312
1748972148841,0.3890409851074219,-0.03278182983398438,9.696685638427734
1748972148905,0.27333160400390627,-0.06960525512695313,9.716893615722658
1748972148972,0.26105712890625,-0.06616241455078126,9.718689880371095
1748972149041,0.2701881408691406,-0.061072998046875,9.727222137451172
1748972149105,0.2966830444335938,-0.05598358154296875,9.707912292480469
1748972149172,0.27617568969726564,-0.06451583862304688,9.730066223144531
1748972149238,0.2977308654785156,-0.0532891845703125,9.710906066894532
1748972149305,0.3094065856933594,-0.067060546875,9.705666961669923
1748972149372,0.30446685791015626,-0.057330780029296875,9.711055755615234
1748972149441,0.30132339477539066,-0.055085449218750006,9.699529724121094
1748972149505,0.28979736328125,-0.04445755004882813,9.707163848876954
1748972149572,0.28156448364257813,-0.04460723876953125,9.706415405273438
1748972149641,0.29713211059570316,-0.06002517700195313,9.712253265380859
1748972149705,0.29758117675781254,-0.052241363525390626,9.70551727294922
1748972149772,0.31449600219726564,-0.057779846191406255,9.724827117919922
1748972149841,0.2992277526855469,-0.0568817138671875,9.708960113525391
1748972149905,0.2860551452636719,-0.04775070190429688,9.700128479003906
1748972149972,0.2847079467773438,-0.05044509887695313,9.710756378173828
1748972150041,0.2782713317871094,-0.06481521606445313,9.70701416015625
1748972150105,0.2827619934082031,-0.05313949584960938,9.70701416015625
1748972150172,0.28575576782226564,-0.05912704467773438,9.708960113525391
1748972150241,0.3153941345214844,-0.0508941650390625,9.708061981201173
1748972150305,0.2989283752441406,-0.0568817138671875,9.711205444335938
1748972150372,0.27333160400390627,-0.046702880859375004,9.710157623291016
1748972150438,0.30296997070312504,-0.0580792236328125,9.712402954101563
1748972150505,0.2854563903808594,-0.053887939453125006,9.7189892578125
1748972150572,0.28919860839843753,-0.04819976806640625,9.713301086425782
1748972150641,0.30252090454101566,-0.055085449218750006,9.706415405273438
1748972150705,0.28635452270507816,-0.0556842041015625,9.714049530029298
1748972150772,0.3001258850097656,-0.053438873291015626,9.721234588623048
1748972150841,0.28889923095703124,-0.03742218017578125,9.711055755615234
1748972150905,0.296982421875,-0.05059478759765625,9.701625366210939
1748972150972,0.29488677978515626,-0.05284011840820313,9.70746322631836
1748972151041,0.28021728515625,-0.05119354248046875,9.72183334350586
1748972151105,0.2944377136230469,-0.05119354248046875,9.713001708984375
1748972151172,0.29219238281250004,-0.05987548828125,9.71419921875
1748972151238,0.288599853515625,-0.05134323120117188,9.70551727294922
1748972151305,0.288599853515625,-0.04819976806640625,9.71180419921875
1748972151372,0.30416748046875003,-0.0425115966796875,9.707912292480469
1748972151441,0.30177246093750004,-0.05837860107421875,9.714947662353516
1748972151505,0.279019775390625,-0.0496966552734375,9.712103576660157
1748972151572,0.2935395812988281,-0.052241363525390626,9.706415405273438
1748972151641,0.28770172119140625,-0.04805007934570313,9.702972564697266
1748972151705,0.2890489196777344,-0.047900390625000004,9.705816650390625
1748972151772,0.2956352233886719,-0.044008483886718755,9.705068206787109
1748972151841,0.2924917602539063,-0.04879852294921875,9.721533966064454
1748972151929,0.298179931640625,-0.05583389282226563,9.701625366210939
1748972151972,0.29368927001953127,-0.053438873291015626,9.70701416015625
1748972152040,0.29338989257812503,-0.05059478759765625,9.6998291015625
1748972152105,0.2902464294433594,-0.05179229736328125,9.70417007446289
1748972152172,0.295784912109375,-0.05044509887695313,9.706565093994142
1748972152241,0.30641281127929687,-0.054935760498046875,9.717642059326172
1748972152305,0.27842102050781253,-0.05718109130859375,9.695637817382813
1748972152372,0.310155029296875,-0.054636383056640626,9.701325988769531
1748972152441,0.29952713012695314,-0.055085449218750006,9.706265716552736
1748972152505,0.3092568969726563,-0.0532891845703125,9.70417007446289
1748972152572,0.30446685791015626,-0.056582336425781254,9.707762603759766
1748972152641,0.30805938720703124,-0.05882766723632813,9.707612915039062
1748972152705,0.2989283752441406,-0.05239105224609375,9.704020385742188
1748972152772,0.2927911376953125,-0.05673202514648438,9.695637817382813
1748972152841,0.30072463989257814,-0.04834945678710938,9.70267318725586
1748972152905,0.2817141723632813,-0.0508941650390625,9.703421630859376
1748972152972,0.27303222656250004,-0.0520916748046875,9.716444549560547
1748972153041,0.2986289978027344,-0.05239105224609375,9.69878128051758
1748972153105,0.29264144897460936,-0.056282958984375006,9.710457000732422
1748972153172,0.30835876464843753,-0.060474243164062504,9.713450775146486
1748972153241,0.29294082641601565,-0.0568817138671875,9.71135513305664
1748972153305,0.2794688415527344,-0.05194198608398438,9.706265716552736
1748972153372,0.28530670166015626,-0.05134323120117188,9.701026611328125
1748972153440,0.29174331665039066,-0.04340972900390625,9.705367584228517
1748972153505,0.30147308349609375,-0.055085449218750006,9.71135513305664
1748972153572,0.3088078308105469,-0.04775070190429688,9.70701416015625
1748972153641,0.314945068359375,-0.0496966552734375,9.70312225341797
1748972153705,0.29294082641601565,-0.05164260864257813,9.710157623291016
1748972153772,0.30416748046875003,-0.058677978515625,9.705068206787109
1748972153840,0.30551467895507817,-0.052690429687500005,9.69698501586914
1748972153905,0.28755203247070316,-0.049097900390625004,9.708511047363281
1748972153972,0.3020718383789063,-0.05284011840820313,9.71464828491211
1748972154041,0.2996768188476563,-0.06077362060546875,9.708660736083985
1748972154105,0.28231292724609375,-0.0484991455078125,9.715546417236329
1748972154172,0.2912942504882813,-0.044756927490234376,9.718240814208984
1748972154238,0.27647506713867187,-0.0592767333984375,9.720037078857422
1748972154305,0.30416748046875003,-0.0449066162109375,9.709409179687501
1748972154371,0.31404693603515627,-0.043559417724609376,9.714348907470704
1748972154441,0.29728179931640625,-0.0496966552734375,9.717941436767578
1748972154505,0.30551467895507817,-0.0508941650390625,9.719588012695313
1748972154572,0.28455825805664064,-0.06301895141601563,9.720935211181642
1748972154640,0.30072463989257814,-0.05822891235351563,9.72617431640625
1748972154705,0.28530670166015626,-0.06062393188476563,9.725276184082032
1748972154772,0.2900967407226563,-0.08726852416992188,9.749226379394532
1748972154839,0.3146456909179688,-0.044307861328125,9.71943832397461
1748972154905,0.31883697509765624,-0.024698638916015626,9.705367584228517
1748972154972,0.30446685791015626,-0.03742218017578125,9.718390502929688
1748972155041,0.2900967407226563,-0.0676593017578125,9.718689880371095
1748972155105,0.2866539001464844,-0.0484991455078125,9.722282409667969
1748972155172,0.28755203247070316,-0.056282958984375006,9.722132720947267
1748972155238,0.28994705200195314,-0.05044509887695313,9.72572525024414
1748972155305,0.3020718383789063,-0.04206253051757813,9.712852020263673
1748972155372,0.3447331237792969,-0.02185455322265625,9.701924743652345
1748972155441,0.2939886474609375,-0.05553451538085938,9.727222137451172
1748972155505,0.29608428955078125,-0.06032455444335938,9.734407196044922
1748972155572,0.28096572875976566,-0.05478607177734375,9.721983032226563
1748972155641,0.2854563903808594,-0.05403762817382813,9.717642059326172
1748972155705,0.3062631225585938,-0.04415817260742188,9.712852020263673
1748972155772,0.2954855346679688,-0.057779846191406255,9.709708557128907
1748972155841,0.3031196594238281,-0.05673202514648438,9.725425872802735
1748972155905,0.30192214965820313,-0.05673202514648438,9.72617431640625
1748972155972,0.28336074829101565,-0.05598358154296875,9.723779296875
1748972156041,0.27692413330078125,-0.04954696655273438,9.718091125488282
1748972156105,0.29413833618164065,-0.04775070190429688,9.724378051757814
1748972156172,0.30566436767578126,-0.032183074951171876,9.709558868408203
1748972156241,0.2992277526855469,-0.06571334838867188,9.735155639648438
1748972156305,0.3135978698730469,-0.04026626586914063,9.710457000732422
1748972156372,0.2951861572265625,-0.0544866943359375,9.719288635253907
1748972156441,0.29114456176757814,-0.055384826660156254,9.72422836303711
1748972156505,0.2977308654785156,-0.0461041259765625,9.708660736083985
1748972156572,0.2758763122558594,-0.05523513793945313,9.722731475830079
1748972156641,0.2859054565429688,-0.053438873291015626,9.723330230712891
1748972156705,0.2944377136230469,-0.0425115966796875,9.71419921875
1748972156772,0.30072463989257814,-0.04805007934570313,9.721084899902344
1748972156841,0.2996768188476563,-0.049097900390625004,9.722581787109375
1748972156935,0.2902464294433594,-0.05987548828125,9.723330230712891
1748972156972,0.29683273315429687,-0.041164398193359375,9.712103576660157
1748972157039,0.27737319946289063,-0.07289840698242188,9.729766845703125
1748972157105,0.2974314880371094,-0.06152206420898438,9.716294860839843
1748972157172,0.2962339782714844,-0.05523513793945313,9.716145172119141
1748972157241,0.2944377136230469,-0.05822891235351563,9.716145172119141
1748972157305,0.3047662353515625,-0.03562591552734375,9.71135513305664
1748972157372,0.30551467895507817,-0.0383203125,9.714797973632812
1748972157441,0.29832962036132815,-0.0556842041015625,9.72183334350586
1748972157505,0.2989283752441406,-0.051043853759765626,9.715546417236329
1748972157572,0.28530670166015626,-0.050295410156250005,9.716594238281251
1748972157641,0.30072463989257814,-0.04805007934570313,9.71180419921875
1748972157705,0.28979736328125,-0.06077362060546875,9.721533966064454
1748972157772,0.28874954223632815,-0.050295410156250005,9.717791748046876
1748972157841,0.28889923095703124,-0.058528289794921876,9.718390502929688
1748972157905,0.2908451843261719,-0.05313949584960938,9.721234588623048
1748972157972,0.30835876464843753,-0.04879852294921875,9.71943832397461
1748972158041,0.298179931640625,-0.05837860107421875,9.7189892578125
1748972158105,0.2962339782714844,-0.05403762817382813,9.728719024658204
1748972158172,0.3035687255859375,-0.05433700561523438,9.721983032226563
1748972158241,0.3092568969726563,-0.053887939453125006,9.720935211181642
1748972158305,0.29593460083007816,-0.046702880859375004,9.7189892578125
1748972158372,0.3010240173339844,-0.05703140258789063,9.721983032226563
1748972158440,0.2902464294433594,-0.052989807128906254,9.71180419921875
1748972158505,0.30177246093750004,-0.04924758911132813,9.721084899902344
1748972158572,0.30296997070312504,-0.05313949584960938,9.72617431640625
1748972158641,0.30835876464843753,-0.0622705078125,9.723330230712891
1748972158705,0.3180885314941406,-0.038470001220703126,9.716594238281251
1748972158772,0.2966830444335938,-0.06436614990234375,9.723928985595704
1748972158838,0.30611343383789064,-0.05179229736328125,9.71988739013672
1748972158905,0.29533584594726564,-0.06032455444335938,9.722282409667969
1748972158972,0.2944377136230469,-0.04924758911132813,9.716743927001954
1748972159041,0.307760009765625,-0.05164260864257813,9.715396728515625
1748972159105,0.2881507873535156,-0.05044509887695313,9.705816650390625
1748972159172,0.29593460083007816,-0.06616241455078126,9.731563110351564
1748972159241,0.2903961181640625,-0.06197113037109375,9.722731475830079
1748972159305,0.3070115661621094,-0.05673202514648438,9.723030853271485
1748972159372,0.3288661193847656,-0.05643264770507813,9.721533966064454
1748972159441,0.30731094360351563,-0.05194198608398438,9.711205444335938
1748972159505,0.28410919189453127,-0.054935760498046875,9.725276184082032
1748972159572,0.2950364685058594,-0.058677978515625,9.71988739013672
1748972159641,0.29144393920898437,-0.051492919921875005,9.716145172119141
1748972159705,0.3200344848632813,-0.04879852294921875,9.718240814208984
1748972159772,0.3065625,-0.05583389282226563,9.718689880371095
1748972159841,0.2912942504882813,-0.04685256958007813,9.727820892333986
1748972159905,0.2704875183105469,-0.05553451538085938,9.7189892578125
1748972159972,0.3189866638183594,-0.027542724609375003,9.706116027832032
1748972160038,0.27617568969726564,-0.08397537231445312,9.740843811035157
1748972160105,0.3200344848632813,-0.04206253051757813,9.709409179687501
1748972160172,0.31629226684570316,-0.06197113037109375,9.71315139770508
1748972160238,0.29114456176757814,-0.04101470947265625,9.708211669921875
1748972160305,0.2836601257324219,-0.048648834228515625,9.72422836303711
1748972160372,0.3234773254394531,-0.052989807128906254,9.711504821777345
1748972160438,0.28650421142578125,-0.05433700561523438,9.726922760009765
1748972160505,0.31225067138671875,-0.060923309326171876,9.724827117919922
1748972160572,0.296982421875,-0.06421646118164062,9.725874938964845
1748972160641,0.27872039794921877,-0.07409591674804687,9.728868713378906
1748972160705,0.3094065856933594,-0.03817062377929688,9.71464828491211
1748972160772,0.28036697387695314,-0.06122268676757813,9.733509063720703
1748972160840,0.2954855346679688,-0.044008483886718755,9.722432098388673
1748972160905,0.319735107421875,-0.039667510986328126,9.71419921875
1748972160972,0.2951861572265625,-0.05358856201171875,9.716743927001954
1748972161041,0.29533584594726564,-0.06556365966796876,9.73096435546875
1748972161105,0.28919860839843753,-0.0592767333984375,9.720635833740236
1748972161172,0.2890489196777344,-0.05792953491210938,9.715845794677735
1748972161241,0.3001258850097656,-0.05433700561523438,9.719138946533203
1748972161305,0.31030471801757814,-0.047451324462890625,9.718839569091797
1748972161372,0.288599853515625,-0.057330780029296875,9.716444549560547
1748972161441,0.26435028076171874,-0.060474243164062504,9.723330230712891
1748972161505,0.2775228881835938,-0.06421646118164062,9.72422836303711
1748972161572,0.3004252624511719,-0.05074447631835938,9.709109802246095
1748972161641,0.2775228881835938,-0.05074447631835938,9.724378051757814
1748972161705,0.28979736328125,-0.0568817138671875,9.715696105957031
1748972161772,0.29533584594726564,-0.061072998046875,9.723479919433593
1748972161841,0.3124003601074219,-0.0401165771484375,9.71180419921875
1748972161933,0.3031196594238281,-0.05284011840820313,9.726024627685547
1748972161972,0.30252090454101566,-0.0592767333984375,9.715845794677735
1748972162039,0.30835876464843753,-0.0473016357421875,9.715247039794923
1748972162105,0.32287857055664065,-0.04146377563476563,9.713750152587892
1748972162172,0.2748284912109375,-0.059725799560546876,9.72901840209961
1748972162241,0.30326934814453127,-0.01466949462890625,9.704619140625
1748972162305,0.28680358886718754,-0.06301895141601563,9.727521514892578
1748972162372,0.3135978698730469,-0.03592529296875,9.73380844116211
1748972162441,0.31030471801757814,-0.05403762817382813,9.720935211181642
1748972162505,0.3113525390625,-0.03158432006835938,9.700876922607423
1748972162572,0.2866539001464844,-0.051492919921875005,9.726473693847657
1748972162641,0.28575576782226564,-0.056582336425781254,9.718839569091797
1748972162704,0.2977308654785156,-0.037272491455078126,9.712253265380859
1748972162772,0.2989283752441406,-0.04879852294921875,9.718240814208984
1748972162841,0.28979736328125,-0.06676116943359375,9.71180419921875
1748972162905,0.3201841735839844,-0.04415817260742188,9.713301086425782
1748972162972,0.3448828125,-0.0413140869140625,9.710007934570314
1748972163041,0.3219804382324219,-0.06601272583007813,9.73620346069336
1748972163105,0.28919860839843753,-0.07035369873046875,9.720635833740236
1748972163172,0.29653335571289063,-0.022303619384765626,9.712552642822265
1748972163241,0.29368927001953127,-0.03278182983398438,9.708660736083985
1748972163305,0.29728179931640625,-0.0449066162109375,9.713750152587892
1748972163372,0.28036697387695314,-0.052989807128906254,9.721983032226563
1748972163439,0.30865814208984377,-0.05553451538085938,9.719588012695313
1748972163504,0.317340087890625,-0.040415954589843754,9.71030731201172
1748972163571,0.29458740234375,-0.05583389282226563,9.718689880371095
1748972163638,0.2639012145996094,-0.06795867919921875,9.726473693847657
1748972163705,0.35595977783203125,-0.050295410156250005,9.707912292480469
1748972163771,0.28575576782226564,-0.06496490478515625,9.716743927001954
1748972163838,0.27812164306640624,-0.06780899047851563,9.720785522460938
1748972163905,0.3074606323242188,-0.039218444824218754,9.70746322631836
1748972163971,0.3001258850097656,-0.0592767333984375,9.710457000732422
1748972164041,0.30865814208984377,-0.057779846191406255,9.711055755615234
1748972164105,0.295784912109375,-0.0676593017578125,9.721533966064454
1748972164171,0.296982421875,-0.05194198608398438,9.712253265380859
1748972164239,0.3131488037109375,-0.0473016357421875,9.707912292480469
1748972164305,0.2782713317871094,-0.07259902954101563,9.721683654785156
1748972164371,0.2832110595703125,-0.05284011840820313,9.720935211181642
1748972164441,0.2950364685058594,-0.0383203125,9.71854019165039
1748972164505,0.32138168334960937,-0.05523513793945313,9.72901840209961
1748972164571,0.3028202819824219,-0.05284011840820313,9.713301086425782
1748972164641,0.30296997070312504,-0.042810974121093755,9.715696105957031
1748972164705,0.2980302429199219,-0.0449066162109375,9.708511047363281
1748972164771,0.29144393920898437,-0.07993377685546875,9.741891632080078
1748972164841,0.27647506713867187,-0.0556842041015625,9.717192993164064
1748972164904,0.29114456176757814,-0.050295410156250005,9.71943832397461
1748972164971,0.31883697509765624,-0.03682342529296875,9.712103576660157
1748972165041,0.30491592407226564,-0.05433700561523438,9.714947662353516
1748972165105,0.29144393920898437,-0.06002517700195313,9.710906066894532
1748972165171,0.30252090454101566,-0.059725799560546876,9.719138946533203
1748972165241,0.28306137084960936,-0.06601272583007813,9.725575561523438
1748972165305,0.29683273315429687,-0.05718109130859375,9.715845794677735
1748972165371,0.32227981567382813,-0.05179229736328125,9.717342681884766
1748972165441,0.34503250122070317,-0.042810974121093755,9.71988739013672
1748972165505,0.30805938720703124,-0.05403762817382813,9.71180419921875
1748972165571,0.27393035888671874,-0.05673202514648438,9.71854019165039
1748972165641,0.29488677978515626,-0.05523513793945313,9.712253265380859
1748972165705,0.29413833618164065,-0.054935760498046875,9.714947662353516
1748972165771,0.2924917602539063,-0.06256988525390625,9.714947662353516
1748972165841,0.2963836669921875,-0.04999603271484375,9.711654510498047
1748972165905,0.30371841430664065,-0.053887939453125006,9.718390502929688
1748972165971,0.29788055419921877,-0.061372375488281256,9.72033645629883
1748972166039,0.30716125488281254,-0.0556842041015625,9.715247039794923
1748972166105,0.28500732421875,-0.044756927490234376,9.71749237060547
1748972166172,0.27063720703125,-0.057779846191406255,9.720037078857422
1748972166241,0.3094065856933594,-0.08098159790039063,9.731563110351564
1748972166305,0.19474502563476564,-0.0017962646484375,9.721533966064454
1748972166371,0.23531066894531252,-0.039667510986328126,9.72033645629883
1748972166438,0.1525328063964844,-0.028141479492187503,9.717192993164064
1748972166505,0.2893482971191406,-0.07214996337890625,9.723030853271485
1748972166572,0.25102798461914066,-0.04954696655273438,9.726473693847657
1748972166641,0.3046165466308594,-0.016465759277343752,9.717941436767578
1748972166705,0.3448828125,-0.043559417724609376,9.71315139770508
1748972166771,0.3183879089355469,-0.05254074096679688,9.722881164550781
1748972166838,0.33784744262695315,-0.054636383056640626,9.707762603759766
1748972166933,0.2636018371582031,-0.05792953491210938,9.740245056152345
1748972166972,0.3059637451171875,-0.04535568237304688,9.713899841308594
1748972167040,0.2712359619140625,-0.04924758911132813,9.730814666748048
1748972167105,0.32287857055664065,-0.06780899047851563,9.729617156982423
1748972167172,0.2820135498046875,-0.05763015747070313,9.715546417236329
1748972167238,0.2785707092285156,-0.06631210327148437,9.727820892333986
1748972167305,0.2999761962890625,-0.05942642211914063,9.723779296875
1748972167372,0.2836601257324219,-0.060174865722656255,9.724078674316408
1748972167441,0.29488677978515626,-0.05942642211914063,9.721234588623048
1748972167505,0.30192214965820313,-0.05059478759765625,9.719588012695313
1748972167572,0.29728179931640625,-0.050295410156250005,9.731263732910156
1748972167639,0.2996768188476563,-0.05239105224609375,9.722282409667969
1748972167705,0.2989283752441406,-0.05478607177734375,9.720635833740236
1748972167772,0.29488677978515626,-0.05598358154296875,9.72183334350586
1748972167840,0.2900967407226563,-0.05358856201171875,9.727671203613282
1748972167905,0.300574951171875,-0.0413140869140625,9.714049530029298
1748972167972,0.2992277526855469,-0.052989807128906254,9.713600463867188
1748972168040,0.316142578125,-0.06616241455078126,9.72138427734375
1748972168105,0.3059637451171875,-0.053887939453125006,9.723330230712891
1748972168172,0.2900967407226563,-0.06331832885742188,9.732610931396485
1748972168238,0.28889923095703124,-0.04939727783203125,9.717342681884766
1748972168305,0.305364990234375,-0.058528289794921876,9.722132720947267
1748972168372,0.29832962036132815,-0.05957611083984375,9.728719024658204
1748972168438,0.29832962036132815,-0.054636383056640626,9.724078674316408
1748972168505,0.29488677978515626,-0.05673202514648438,9.718839569091797
1748972168572,0.2989283752441406,-0.060474243164062504,9.72033645629883
1748972168640,0.290994873046875,-0.055085449218750006,9.71988739013672
1748972168705,0.28530670166015626,-0.05433700561523438,9.721983032226563
1748972168772,0.2927911376953125,-0.054636383056640626,9.722132720947267
1748972168841,0.29488677978515626,-0.0556842041015625,9.720935211181642
1748972168905,0.30865814208984377,-0.06346801757812501,9.719588012695313
1748972168971,0.28231292724609375,-0.060923309326171876,9.717941436767578
1748972169038,0.28156448364257813,-0.06376739501953126,9.727970581054688
1748972169105,0.2912942504882813,-0.05059478759765625,9.723928985595704
1748972169172,0.29144393920898437,-0.057330780029296875,9.729916534423829
1748972169238,0.300574951171875,-0.045505371093750004,9.733658752441407
1748972169305,0.30865814208984377,-0.046702880859375004,9.722881164550781
1748972169372,0.2989283752441406,-0.05254074096679688,9.720935211181642
1748972169442,0.2920426940917969,-0.0592767333984375,9.727521514892578
1748972169505,0.29608428955078125,-0.0544866943359375,9.723030853271485
1748972169572,0.31284942626953127,-0.053887939453125006,9.715247039794923
1748972169641,0.2920426940917969,-0.053738250732421874,9.725126495361328
1748972169705,0.3040177917480469,-0.05403762817382813,9.723629608154297
1748972169772,0.3106040954589844,-0.053738250732421874,9.722432098388673
1748972169838,0.3001258850097656,-0.055384826660156254,9.723180541992187
1748972169905,0.2935395812988281,-0.06062393188476563,9.721983032226563
1748972169972,0.28231292724609375,-0.06735992431640625,9.7285693359375
1748972170039,0.2797682189941406,-0.056582336425781254,9.710157623291016
1748972170105,0.28979736328125,-0.05912704467773438,9.725276184082032
1748972170172,0.3040177917480469,-0.055085449218750006,9.724078674316408
1748972170242,0.30671218872070316,-0.05403762817382813,9.715995483398437
1748972170305,0.30147308349609375,-0.05703140258789063,9.729916534423829
1748972170372,0.30790969848632815,-0.05179229736328125,9.726922760009765
1748972170439,0.30790969848632815,-0.05403762817382813,9.7189892578125
1748972170505,0.28455825805664064,-0.05478607177734375,9.723479919433593
1748972170572,0.3153941345214844,-0.0484991455078125,9.72572525024414
1748972170642,0.30132339477539066,-0.05194198608398438,9.721084899902344
1748972170705,0.2954855346679688,-0.05433700561523438,9.718091125488282
1748972170772,0.2947370910644531,-0.05718109130859375,9.722432098388673
1748972170842,0.29847930908203124,-0.06346801757812501,9.72572525024414
1748972170905,0.3085084533691406,-0.052989807128906254,9.716893615722658
1748972170972,0.28336074829101565,-0.06930587768554688,9.724827117919922
1748972171041,0.2866539001464844,-0.05822891235351563,9.712402954101563
1748972171105,0.29114456176757814,-0.06481521606445313,9.714947662353516
1748972171172,0.2893482971191406,-0.05478607177734375,9.723030853271485
1748972171239,0.2878514099121094,-0.05598358154296875,9.725126495361328
1748972171305,0.27916946411132815,-0.053887939453125006,9.720785522460938
1748972171372,0.29189300537109375,-0.05119354248046875,9.719138946533203
1748972171439,0.26764343261718754,-0.05792953491210938,9.723030853271485
1748972171505,0.30716125488281254,-0.059725799560546876,9.730664978027344
1748972171572,0.30386810302734374,-0.05358856201171875,9.720935211181642
1748972171639,0.29264144897460936,-0.04924758911132813,9.721234588623048
1748972171705,0.3001258850097656,-0.05763015747070313,9.71419921875
1748972171772,0.33185989379882813,-0.05014572143554688,9.711205444335938
1748972171841,0.25387207031250003,-0.056282958984375006,9.718689880371095
1748972171929,0.28291168212890627,-0.05284011840820313,9.711953887939453
1748972171972,0.3183879089355469,-0.054935760498046875,9.718240814208984
1748972172039,0.2915936279296875,-0.049846343994140625,9.711205444335938
1748972172105,0.3155438232421875,-0.05179229736328125,9.72572525024414
1748972172172,0.31090347290039066,-0.0520916748046875,9.721234588623048
1748972172241,0.2788700866699219,-0.05987548828125,9.723330230712891
1748972172305,0.2998265075683594,-0.06571334838867188,9.723928985595704
1748972172372,0.29952713012695314,-0.056282958984375006,9.717192993164064
1748972172441,0.30386810302734374,-0.05748046875,9.717642059326172
1748972172505,0.2938389587402344,-0.05403762817382813,9.727521514892578
1748972172572,0.2896476745605469,-0.058677978515625,9.720186767578125
1748972172641,0.28874954223632815,-0.0532891845703125,9.723180541992187
1748972172705,0.28635452270507816,-0.0622705078125,9.723479919433593
1748972172772,0.2924917602539063,-0.0592767333984375,9.722731475830079
1748972172838,0.288599853515625,-0.05179229736328125,9.718240814208984
1748972172905,0.27916946411132815,-0.05822891235351563,9.719138946533203
1748972172972,0.30296997070312504,-0.05942642211914063,9.724827117919922
1748972173041,0.2980302429199219,-0.05239105224609375,9.715097351074219
1748972173105,0.29309051513671874,-0.054636383056640626,9.722282409667969
1748972173172,0.2896476745605469,-0.06481521606445313,9.725276184082032
1748972173241,0.2832110595703125,-0.058677978515625,9.724827117919922
1748972173305,0.29458740234375,-0.060174865722656255,9.715546417236329
1748972173372,0.2986289978027344,-0.054187316894531254,9.729916534423829
1748972173441,0.2963836669921875,-0.05523513793945313,9.726324005126953
1748972173505,0.2977308654785156,-0.058677978515625,9.727820892333986
1748972173572,0.2944377136230469,-0.0544866943359375,9.724527740478516
1748972173641,0.29952713012695314,-0.04954696655273438,9.730066223144531
1748972173705,0.30371841430664065,-0.05643264770507813,9.722581787109375
1748972173772,0.30611343383789064,-0.06002517700195313,9.727671203613282
1748972173841,0.30132339477539066,-0.05942642211914063,9.721983032226563
1748972173905,0.2935395812988281,-0.056582336425781254,9.716893615722658
1748972173972,0.28994705200195314,-0.05403762817382813,9.725425872802735
1748972174041,0.2896476745605469,-0.05598358154296875,9.724827117919922
1748972174105,0.296982421875,-0.054636383056640626,9.727222137451172
1748972174172,0.2963836669921875,-0.057779846191406255,9.711504821777345
1748972174240,0.29728179931640625,-0.0556842041015625,9.723330230712891
1748972174305,0.2950364685058594,-0.057330780029296875,9.726773071289063
1748972174372,0.29368927001953127,-0.0544866943359375,9.724078674316408
1748972174439,0.30371841430664065,-0.0628692626953125,9.723629608154297
1748972174505,0.28830047607421877,-0.05987548828125,9.715696105957031
1748972174572,0.2947370910644531,-0.058677978515625,9.727970581054688
1748972174641,0.3106040954589844,-0.060174865722656255,9.717791748046876
1748972174705,0.30371841430664065,-0.0532891845703125,9.718689880371095
1748972174772,0.2974314880371094,-0.054935760498046875,9.717791748046876
1748972174841,0.29937744140625,-0.05284011840820313,9.718689880371095
1748972174905,0.29653335571289063,-0.053438873291015626,9.717941436767578
1748972174972,0.2915936279296875,-0.05942642211914063,9.724827117919922
1748972175040,0.2915936279296875,-0.06182144165039063,9.71704330444336
1748972175105,0.29234207153320313,-0.047451324462890625,9.712552642822265
1748972175172,0.2832110595703125,-0.0461041259765625,9.711953887939453
1748972175244,0.2839595031738281,-0.054636383056640626,9.731114044189454
1748972175305,0.2956352233886719,-0.05748046875,9.719588012695313
1748972175372,0.2827619934082031,-0.04415817260742188,9.711654510498047
1748972175442,0.2998265075683594,-0.0700543212890625,9.71988739013672
1748972175505,0.28351043701171874,-0.058977355957031255,9.725425872802735
1748972175572,0.3047662353515625,-0.04954696655273438,9.716743927001954
1748972175644,0.29608428955078125,-0.06077362060546875,9.722132720947267
1748972175705,0.29413833618164065,-0.054935760498046875,9.718689880371095
1748972175772,0.2932402038574219,-0.059725799560546876,9.724527740478516
1748972175844,0.29488677978515626,-0.05313949584960938,9.720037078857422
1748972175905,0.28740234375,-0.05583389282226563,9.723479919433593
1748972175972,0.2947370910644531,-0.056133270263671875,9.717192993164064
1748972176041,0.30296997070312504,-0.0568817138671875,9.716444549560547
1748972176105,0.2966830444335938,-0.05074447631835938,9.70417007446289
1748972176172,0.2938389587402344,-0.05313949584960938,9.71943832397461
1748972176241,0.3046165466308594,-0.05882766723632813,9.71749237060547
1748972176305,0.30566436767578126,-0.056282958984375006,9.719737701416015
1748972176372,0.29533584594726564,-0.05014572143554688,9.719288635253907
1748972176441,0.28695327758789063,-0.06152206420898438,9.715995483398437
1748972176505,0.27497817993164064,-0.05313949584960938,9.715696105957031
1748972176572,0.2760260009765625,-0.0568817138671875,9.716594238281251
1748972176641,0.2710862731933594,-0.07619155883789062,9.719138946533203
1748972176705,0.28635452270507816,-0.04954696655273438,9.716893615722658
1748972176772,0.28635452270507816,-0.060174865722656255,9.72033645629883
1748972176841,0.2974314880371094,-0.052241363525390626,9.709409179687501
1748972176930,0.319735107421875,-0.05254074096679688,9.71854019165039
1748972176972,0.3092568969726563,-0.06152206420898438,9.72422836303711
1748972177039,0.2770738220214844,-0.05763015747070313,9.717192993164064
1748972177105,0.2924917602539063,-0.06197113037109375,9.715097351074219
1748972177172,0.29683273315429687,-0.06152206420898438,9.713450775146486
1748972177243,0.2836601257324219,-0.060923309326171876,9.716893615722658
1748972177305,0.2963836669921875,-0.0622705078125,9.716893615722658
1748972177372,0.28874954223632815,-0.05164260864257813,9.722132720947267
1748972177441,0.2848576354980469,-0.057330780029296875,9.717791748046876
1748972177505,0.2890489196777344,-0.05164260864257813,9.718091125488282
1748972177572,0.30731094360351563,-0.05313949584960938,9.713600463867188
1748972177641,0.3062631225585938,-0.05179229736328125,9.710007934570314
1748972177705,0.3028202819824219,-0.06301895141601563,9.7189892578125
1748972177772,0.3062631225585938,-0.061072998046875,9.722881164550781
1748972177841,0.29907806396484377,-0.04954696655273438,9.712852020263673
1748972177905,0.3094065856933594,-0.058977355957031255,9.71135513305664
1748972177972,0.30252090454101566,-0.05583389282226563,9.71315139770508
1748972178041,0.3023712158203125,-0.0592767333984375,9.713450775146486
1748972178105,0.296982421875,-0.06152206420898438,9.722282409667969
1748972178172,0.3047662353515625,-0.05044509887695313,9.718839569091797
1748972178240,0.3107537841796875,-0.053438873291015626,9.711205444335938
1748972178305,0.3180885314941406,-0.0580792236328125,9.707612915039062
1748972178372,0.29054580688476567,-0.05703140258789063,9.720486145019532
1748972178440,0.31180160522460937,-0.0520916748046875,9.71419921875
1748972178505,0.3047662353515625,-0.05837860107421875,9.71180419921875
1748972178572,0.30147308349609375,-0.0437091064453125,9.717941436767578
1748972178638,0.30686187744140625,-0.05822891235351563,9.724078674316408
1748972178705,0.30386810302734374,-0.057779846191406255,9.715845794677735
1748972178772,0.27916946411132815,-0.07289840698242188,9.725425872802735
1748972178840,0.29533584594726564,-0.06735992431640625,9.72033645629883
1748972178905,0.2915936279296875,-0.06122268676757813,9.714797973632812
1748972178972,0.2977308654785156,-0.05643264770507813,9.720186767578125
1748972179040,0.31329849243164065,-0.05284011840820313,9.714498596191406
1748972179105,0.26719436645507816,-0.05194198608398438,9.720935211181642
1748972179172,0.29877868652343753,-0.0676593017578125,9.708810424804687
1748972179240,0.2932402038574219,-0.06271957397460938,9.720186767578125
1748972179305,0.29608428955078125,-0.05284011840820313,9.715546417236329
1748972179372,0.2912942504882813,-0.05763015747070313,9.710007934570314
1748972179440,0.2902464294433594,-0.06331832885742188,9.7189892578125
1748972179505,0.30267059326171875,-0.05703140258789063,9.719288635253907
1748972179571,0.29069549560546876,-0.05703140258789063,9.716893615722658
1748972179639,0.30566436767578126,-0.05942642211914063,9.719288635253907
1748972179705,0.28979736328125,-0.05673202514648438,9.716743927001954
1748972179772,0.3004252624511719,-0.05194198608398438,9.713450775146486
1748972179839,0.305364990234375,-0.05673202514648438,9.717342681884766
1748972179905,0.30371841430664065,-0.06631210327148437,9.715396728515625
1748972179972,0.30716125488281254,-0.05912704467773438,9.723180541992187
1748972180039,0.29234207153320313,-0.05792953491210938,9.719288635253907
1748972180105,0.2896476745605469,-0.05763015747070313,9.722881164550781
1748972180172,0.2817141723632813,-0.0592767333984375,9.718839569091797
1748972180239,0.29713211059570316,-0.06122268676757813,9.70596633911133
1748972180305,0.28291168212890627,-0.062420196533203125,9.71135513305664
1748972180372,0.2842588806152344,-0.06122268676757813,9.726473693847657
1748972180439,0.2908451843261719,-0.05792953491210938,9.72422836303711
1748972180505,0.26809249877929686,-0.07289840698242188,9.716893615722658
1748972180572,0.28306137084960936,-0.05957611083984375,9.726473693847657
1748972180639,0.2963836669921875,-0.0532891845703125,9.715097351074219
1748972180705,0.3177891540527344,-0.055384826660156254,9.715396728515625
1748972180772,0.3131488037109375,-0.054935760498046875,9.714049530029298
1748972180839,0.317340087890625,-0.06421646118164062,9.723928985595704
1748972180905,0.31644195556640625,-0.056282958984375006,9.72617431640625
1748972180972,0.2966830444335938,-0.061671752929687504,9.711504821777345
1748972181039,0.29054580688476567,-0.06002517700195313,9.717791748046876
1748972181105,0.29728179931640625,-0.055384826660156254,9.701775054931641
1748972181172,0.3050656127929688,-0.05119354248046875,9.71135513305664
1748972181241,0.30446685791015626,-0.06062393188476563,9.707912292480469
1748972181305,0.29234207153320313,-0.06601272583007813,9.710007934570314
1748972181372,0.2721340942382813,-0.06676116943359375,9.717791748046876
1748972181441,0.27677444458007816,-0.07095245361328126,9.727371826171876
1748972181505,0.30790969848632815,-0.06825805664062501,9.701625366210939
1748972181572,0.2743794250488281,-0.08322692871093751,9.732311553955078
1748972181641,0.32721954345703125,-0.023201751708984378,9.678423614501954
1748972181705,0.2806663513183594,-0.055384826660156254,9.717342681884766
1748972181772,0.3104544067382813,-0.0772393798828125,9.706714782714844
1748972181839,0.3411405944824219,-0.04685256958007813,9.711504821777345
1748972181931,0.3129991149902344,-0.05059478759765625,9.710157623291016
1748972181972,0.29458740234375,-0.05403762817382813,9.719737701416015
1748972182039,0.3004252624511719,-0.10538085937500001,9.754764862060547
1748972182105,0.264649658203125,-0.060474243164062504,9.726473693847657
1748972182172,0.2851570129394531,-0.05254074096679688,9.714797973632812
1748972182244,0.28949798583984376,-0.06511459350585938,9.732760620117189
1748972182305,0.2797682189941406,-0.0592767333984375,9.723928985595704
1748972182372,0.2942880249023438,-0.0473016357421875,9.723479919433593
1748972182444,0.2942880249023438,-0.0580792236328125,9.722132720947267
1748972182505,0.3088078308105469,-0.052241363525390626,9.717791748046876
1748972182572,0.30566436767578126,-0.05822891235351563,9.723030853271485
1748972182644,0.29608428955078125,-0.056282958984375006,9.713750152587892
1748972182705,0.3058140563964844,-0.058977355957031255,9.727521514892578
1748972182772,0.3016227722167969,-0.05134323120117188,9.721234588623048
1748972182844,0.29758117675781254,-0.055085449218750006,9.716145172119141
1748972182905,0.29832962036132815,-0.06436614990234375,9.72033645629883
1748972182972,0.2743794250488281,-0.04805007934570313,9.727222137451172
1748972183041,0.2900967407226563,-0.053438873291015626,9.729467468261719
1748972183105,0.28680358886718754,-0.055384826660156254,9.725126495361328
1748972183172,0.28231292724609375,-0.06436614990234375,9.729766845703125
1748972183241,0.277822265625,-0.058977355957031255,9.724078674316408
1748972183305,0.27722351074218754,-0.06541397094726563,9.720635833740236
1748972183372,0.3146456909179688,-0.04775070190429688,9.71749237060547
1748972183441,0.27737319946289063,-0.05882766723632813,9.72183334350586
1748972183505,0.29069549560546876,-0.06451583862304688,9.73291030883789
1748972183572,0.31793884277343754,-0.05553451538085938,9.713600463867188
1748972183641,0.2942880249023438,-0.06002517700195313,9.722731475830079
1748972183705,0.28216323852539066,-0.057779846191406255,9.73620346069336
1748972183772,0.34338592529296874,-0.0622705078125,9.722432098388673
1748972183839,0.3106040954589844,-0.04655319213867188,9.729766845703125
1748972183905,0.2980302429199219,-0.05179229736328125,9.730814666748048
1748972183972,0.31090347290039066,-0.054187316894531254,9.728120269775392
1748972184041,0.3088078308105469,-0.05583389282226563,9.710007934570314
1748972184105,0.3059637451171875,-0.058528289794921876,9.731263732910156
1748972184172,0.3261717224121094,-0.0484991455078125,9.713450775146486
1748972184239,0.31255004882812504,-0.062120819091796876,9.723779296875
1748972184305,0.2896476745605469,-0.06481521606445313,9.734107818603515
1748972184372,0.28650421142578125,-0.0544866943359375,9.72183334350586
1748972184441,0.3189866638183594,-0.0335302734375,9.701924743652345
1748972184505,0.32332763671875003,-0.0556842041015625,9.713001708984375
1748972184572,0.25731491088867187,-0.08607101440429688,9.73859848022461
1748972184644,0.2974314880371094,-0.0622705078125,9.730515289306641
1748972184705,0.31943572998046876,-0.062420196533203125,9.725874938964845
1748972184772,0.2710862731933594,-0.053438873291015626,9.715995483398437
1748972184843,0.2847079467773438,-0.0628692626953125,9.729916534423829
1748972184905,0.30192214965820313,-0.053887939453125006,9.718839569091797
1748972184972,0.2927911376953125,-0.05478607177734375,9.723180541992187
1748972185044,0.29234207153320313,-0.06571334838867188,9.71854019165039
1748972185105,0.300574951171875,-0.057330780029296875,9.718240814208984
1748972185172,0.31105316162109375,-0.04939727783203125,9.729617156982423
1748972185239,0.29832962036132815,-0.06556365966796876,9.720935211181642
1748972185305,0.29832962036132815,-0.05433700561523438,9.716444549560547
1748972185372,0.30072463989257814,-0.058528289794921876,9.723629608154297
1748972185438,0.2817141723632813,-0.06451583862304688,9.724527740478516
1748972185505,0.32108230590820314,-0.06795867919921875,9.722731475830079
1748972185572,0.290994873046875,-0.05957611083984375,9.715546417236329
1748972185644,0.3034190368652344,-0.062120819091796876,9.72901840209961
1748972185705,0.29054580688476567,-0.06421646118164062,9.720635833740236
1748972185772,0.2856060791015625,-0.07559280395507813,9.723629608154297
1748972185844,0.2656974792480469,-0.052989807128906254,9.722581787109375
1748972185905,0.25267456054687504,-0.057779846191406255,9.722432098388673
1748972185972,0.27677444458007816,-0.061372375488281256,9.730814666748048
1748972186044,0.3031196594238281,-0.0544866943359375,9.735005950927734
1748972186105,0.27737319946289063,-0.0568817138671875,9.731712799072266
1748972186172,0.3004252624511719,-0.047151947021484376,9.713001708984375
1748972186244,0.3100053405761719,-0.06915618896484375,9.72662338256836
1748972186305,0.2935395812988281,-0.06301895141601563,9.726922760009765
1748972186372,0.2896476745605469,-0.062420196533203125,9.724827117919922
1748972186441,0.2938389587402344,-0.056133270263671875,9.718091125488282
1748972186505,0.29069549560546876,-0.05837860107421875,9.725874938964845
1748972186572,0.2903961181640625,-0.06152206420898438,9.723479919433593
1748972186644,0.3040177917480469,-0.05822891235351563,9.71943832397461
1748972186705,0.3201841735839844,-0.05703140258789063,9.704319763183594
1748972186772,0.30147308349609375,-0.04460723876953125,9.726773071289063
1748972186844,0.2856060791015625,-0.05748046875,9.720935211181642
1748972186926,0.29338989257812503,-0.06376739501953126,9.726324005126953
1748972186972,0.33440460205078126,-0.053438873291015626,9.709708557128907
1748972187039,0.2704875183105469,-0.04924758911132813,9.71270233154297
1748972187105,0.2752775573730469,-0.06735992431640625,9.723479919433593
1748972187172,0.27737319946289063,-0.06077362060546875,9.71270233154297
1748972187239,0.2974314880371094,-0.0580792236328125,9.71943832397461
1748972187305,0.2859054565429688,-0.06346801757812501,9.726922760009765
1748972187372,0.28800109863281254,-0.05718109130859375,9.723180541992187
1748972187444,0.30326934814453127,-0.060174865722656255,9.712103576660157
1748972187505,0.26719436645507816,-0.053738250732421874,9.720785522460938
1748972187572,0.2647993469238281,-0.06301895141601563,9.71704330444336
1748972187640,0.2736309814453125,-0.06571334838867188,9.726324005126953
1748972187705,0.2805166625976563,-0.06032455444335938,9.715546417236329
1748972187772,0.3016227722167969,-0.0628692626953125,9.723180541992187
1748972187838,0.310155029296875,-0.0508941650390625,9.705367584228517
1748972187905,0.29683273315429687,-0.061372375488281256,9.715546417236329
1748972187972,0.3004252624511719,-0.05313949584960938,9.711504821777345
1748972188043,0.30192214965820313,-0.045505371093750004,9.723030853271485
1748972188105,0.2942880249023438,-0.05598358154296875,9.721683654785156
1748972188172,0.29937744140625,-0.04685256958007813,9.727222137451172
1748972188243,0.3146456909179688,-0.052690429687500005,9.723330230712891
1748972188305,0.30805938720703124,-0.06376739501953126,9.717941436767578
1748972188372,0.30416748046875003,-0.044008483886718755,9.709558868408203
1748972188441,0.2962339782714844,-0.0449066162109375,9.720186767578125
1748972188505,0.28111541748046875,-0.05358856201171875,9.71854019165039
1748972188572,0.28874954223632815,-0.05074447631835938,9.712552642822265
1748972188643,0.27797195434570315,-0.052241363525390626,9.725126495361328
1748972188705,0.27916946411132815,-0.060174865722656255,9.719138946533203
1748972188772,0.2878514099121094,-0.05703140258789063,9.723479919433593
1748972188843,0.2902464294433594,-0.05882766723632813,9.717342681884766
1748972188905,0.28500732421875,-0.047900390625000004,9.724378051757814
1748972188972,0.2848576354980469,-0.05059478759765625,9.708061981201173
1748972189043,0.28830047607421877,-0.06316864013671876,9.722731475830079
1748972189105,0.2915936279296875,-0.055085449218750006,9.718689880371095
1748972189172,0.29713211059570316,-0.051492919921875005,9.714797973632812
1748972189243,0.2890489196777344,-0.04685256958007813,9.730515289306641
1748972189305,0.31210098266601566,-0.04685256958007813,9.71464828491211
1748972189372,0.3028202819824219,-0.06571334838867188,9.723928985595704
1748972189442,0.2820135498046875,-0.0556842041015625,9.721683654785156
1748972189505,0.29413833618164065,-0.050295410156250005,9.724378051757814
1748972189572,0.2939886474609375,-0.05134323120117188,9.719588012695313
1748972189639,0.2844085693359375,-0.05792953491210938,9.716294860839843
1748972189705,0.3028202819824219,-0.062420196533203125,9.727671203613282
1748972189772,0.3046165466308594,-0.04565505981445313,9.712552642822265
1748972189839,0.3050656127929688,-0.05074447631835938,9.708511047363281
1748972189905,0.29608428955078125,-0.054187316894531254,9.725575561523438
1748972189972,0.3023712158203125,-0.05987548828125,9.720186767578125
1748972190045,0.28740234375,-0.05119354248046875,9.719138946533203
1748972190105,0.3126997375488281,-0.0532891845703125,9.708810424804687
1748972190172,0.30895751953125,-0.05912704467773438,9.70701416015625
1748972190239,0.2782713317871094,-0.06601272583007813,9.725126495361328
1748972190305,0.298179931640625,-0.058677978515625,9.713301086425782
1748972190372,0.2924917602539063,-0.05194198608398438,9.715396728515625
1748972190442,0.29832962036132815,-0.058677978515625,9.714797973632812
1748972190505,0.29114456176757814,-0.05478607177734375,9.722581787109375
1748972190572,0.3052153015136719,-0.060923309326171876,9.71704330444336
1748972190645,0.2956352233886719,-0.054935760498046875,9.719588012695313
1748972190705,0.2920426940917969,-0.060923309326171876,9.722881164550781
1748972190772,0.2977308654785156,-0.04999603271484375,9.705217895507813
1748972190844,0.296982421875,-0.051043853759765626,9.713899841308594
1748972190905,0.3010240173339844,-0.05837860107421875,9.719138946533203
1748972190972,0.2944377136230469,-0.0568817138671875,9.724827117919922
1748972191044,0.2977308654785156,-0.05284011840820313,9.726473693847657
1748972191105,0.29593460083007816,-0.0484991455078125,9.72467742919922
1748972191172,0.3047662353515625,-0.06062393188476563,9.715247039794923
1748972191244,0.3126997375488281,-0.048648834228515625,9.720486145019532
1748972191305,0.3046165466308594,-0.06032455444335938,9.718689880371095
1748972191372,0.31090347290039066,-0.038470001220703126,9.717342681884766
1748972191438,0.2890489196777344,-0.062120819091796876,9.721084899902344
1748972191505,0.29728179931640625,-0.0568817138671875,9.71180419921875
1748972191572,0.2908451843261719,-0.053438873291015626,9.722282409667969
1748972191644,0.2996768188476563,-0.05044509887695313,9.723030853271485
1748972191705,0.2912942504882813,-0.05942642211914063,9.72138427734375
1748972191772,0.28695327758789063,-0.0592767333984375,9.718839569091797
1748972191844,0.29174331665039066,-0.056282958984375006,9.722881164550781
1748972191932,0.30910720825195315,-0.04894821166992188,9.711654510498047
1748972191972,0.29294082641601565,-0.05478607177734375,9.724527740478516
1748972192039,0.3001258850097656,-0.05074447631835938,9.724527740478516
1748972192105,0.3020718383789063,-0.05119354248046875,9.71704330444336
1748972192172,0.3092568969726563,-0.0640667724609375,9.721234588623048
1748972192244,0.30551467895507817,-0.044307861328125,9.715546417236329
1748972192305,0.30132339477539066,-0.05957611083984375,9.717342681884766
1748972192372,0.29653335571289063,-0.05837860107421875,9.718689880371095
1748972192444,0.2999761962890625,-0.04415817260742188,9.71180419921875
1748972192505,0.31449600219726564,-0.045505371093750004,9.713600463867188
1748972192572,0.30716125488281254,-0.0532891845703125,9.717941436767578
1748972192644,0.30192214965820313,-0.06346801757812501,9.710157623291016
1748972192705,0.2962339782714844,-0.05718109130859375,9.71988739013672
1748972192772,0.29533584594726564,-0.05942642211914063,9.725874938964845
1748972192842,0.2842588806152344,-0.05912704467773438,9.72033645629883
1748972192905,0.2896476745605469,-0.06331832885742188,9.718390502929688
1748972192972,0.3112028503417969,-0.058977355957031255,9.72183334350586
1748972193043,0.3001258850097656,-0.06466552734375,9.729317779541017
1748972193105,0.27692413330078125,-0.05598358154296875,9.725874938964845
1748972193172,0.28830047607421877,-0.05822891235351563,9.71988739013672
1748972193239,0.2986289978027344,-0.056582336425781254,9.723030853271485
1748972193305,0.29174331665039066,-0.05358856201171875,9.719288635253907
1748972193372,0.29877868652343753,-0.045056304931640624,9.71315139770508
1748972193441,0.3034190368652344,-0.061671752929687504,9.717642059326172
1748972193505,0.3023712158203125,-0.05583389282226563,9.724378051757814
1748972193572,0.30222152709960937,-0.0461041259765625,9.714348907470704
1748972193643,0.30177246093750004,-0.05179229736328125,9.716594238281251
1748972193705,0.2977308654785156,-0.05583389282226563,9.712253265380859
1748972193772,0.296982421875,-0.061372375488281256,9.722731475830079
1748972193843,0.29114456176757814,-0.0568817138671875,9.71749237060547
1748972193905,0.29458740234375,-0.04939727783203125,9.726024627685547
1748972193972,0.2962339782714844,-0.05179229736328125,9.72572525024414
1748972194039,0.29294082641601565,-0.05583389282226563,9.725874938964845
1748972194105,0.2980302429199219,-0.05433700561523438,9.713600463867188
1748972194172,0.2915936279296875,-0.058677978515625,9.706864471435548
1748972194243,0.2947370910644531,-0.05553451538085938,9.712103576660157
1748972194305,0.2996768188476563,-0.0580792236328125,9.716743927001954
1748972194372,0.2903961181640625,-0.054636383056640626,9.709109802246095
1748972194441,0.30027557373046876,-0.049097900390625004,9.719288635253907
1748972194505,0.29683273315429687,-0.052989807128906254,9.711654510498047
1748972194572,0.25806335449218754,-0.07020401000976563,9.74009536743164
1748972194644,0.32721954345703125,-0.07903564453125,9.727371826171876
1748972194705,0.31629226684570316,-0.03457809448242188,9.703721008300782
1748972194772,0.3333567810058594,-0.060474243164062504,9.714797973632812
1748972194845,0.31105316162109375,-0.05119354248046875,9.715247039794923
1748972194905,0.30296997070312504,-0.0568817138671875,9.717941436767578
1748972194972,0.30446685791015626,-0.053887939453125006,9.729168090820313
1748972195044,0.28755203247070316,-0.05074447631835938,9.719588012695313
1748972195105,0.29952713012695314,-0.05523513793945313,9.718839569091797
1748972195172,0.29788055419921877,-0.055085449218750006,9.725874938964845
1748972195244,0.3023712158203125,-0.05164260864257813,9.729766845703125
1748972195305,0.2977308654785156,-0.05059478759765625,9.728868713378906
1748972195372,0.3192860412597656,-0.056282958984375006,9.720186767578125
1748972195442,0.30491592407226564,-0.050295410156250005,9.720935211181642
1748972195505,0.28979736328125,-0.0532891845703125,9.724976806640626
1748972195572,0.29338989257812503,-0.055085449218750006,9.722731475830079
1748972195639,0.30177246093750004,-0.06122268676757813,9.722282409667969
1748972195705,0.28949798583984376,-0.04340972900390625,9.722132720947267
1748972195772,0.3043171691894531,-0.05583389282226563,9.721084899902344
1748972195845,0.30641281127929687,-0.061072998046875,9.711654510498047
1748972195905,0.29219238281250004,-0.05792953491210938,9.724527740478516
1748972195973,0.30446685791015626,-0.058977355957031255,9.722581787109375
1748972196044,0.30865814208984377,-0.05598358154296875,9.729168090820313
1748972196105,0.30790969848632815,-0.05478607177734375,9.720486145019532
1748972196172,0.3035687255859375,-0.047900390625000004,9.724527740478516
1748972196239,0.28979736328125,-0.05703140258789063,9.728868713378906
1748972196305,0.30671218872070316,-0.05957611083984375,9.72617431640625
1748972196372,0.29294082641601565,-0.05912704467773438,9.726324005126953
1748972196442,0.3010240173339844,-0.06197113037109375,9.728868713378906
1748972196505,0.27572662353515626,-0.07080276489257813,9.72707244873047
1748972196573,0.2860551452636719,-0.062120819091796876,9.730365600585937
1748972196644,0.32063323974609376,-0.026195526123046875,9.708660736083985
1748972196705,0.28455825805664064,-0.054187316894531254,9.73186248779297
1748972196773,0.26599685668945316,-0.08277786254882813,9.741592254638672
1748972196844,0.2908451843261719,-0.05284011840820313,9.721234588623048
1748972196931,0.2824626159667969,-0.05478607177734375,9.723928985595704
1748972196973,0.30641281127929687,-0.054636383056640626,9.71270233154297
1748972197039,0.29713211059570316,-0.05583389282226563,9.715696105957031
1748972197105,0.2956352233886719,-0.047151947021484376,9.71419921875
1748972197173,0.29488677978515626,-0.05987548828125,9.718240814208984
1748972197244,0.3023712158203125,-0.05134323120117188,9.721234588623048
1748972197305,0.29653335571289063,-0.05763015747070313,9.716893615722658
1748972197372,0.2962339782714844,-0.052989807128906254,9.722731475830079
1748972197444,0.2832110595703125,-0.06915618896484375,9.72467742919922
1748972197505,0.30267059326171875,-0.04415817260742188,9.710606689453126
1748972197572,0.3004252624511719,-0.05044509887695313,9.716594238281251
1748972197644,0.2998265075683594,-0.06256988525390625,9.723779296875
1748972197705,0.30371841430664065,-0.058977355957031255,9.717192993164064
1748972197772,0.2700384521484375,-0.06421646118164062,9.72183334350586
1748972197844,0.29174331665039066,-0.028740234375,9.70701416015625
1748972197905,0.286204833984375,-0.05583389282226563,9.723779296875
1748972197972,0.26854156494140624,-0.06721023559570313,9.719138946533203
1748972198043,0.28380981445312503,-0.04879852294921875,9.717791748046876
1748972198105,0.31943572998046876,-0.012274475097656251,9.701325988769531
1748972198172,0.27797195434570315,-0.047451324462890625,9.709558868408203
1748972198243,0.2652484130859375,-0.07080276489257813,9.715546417236329
1748972198305,0.3309617614746094,-0.038769378662109374,9.705217895507813
1748972198373,0.31913635253906253,-0.04086502075195313,9.714797973632812
1748972198441,0.3251239013671875,-0.07948471069335938,9.72901840209961
1748972198505,0.27452911376953126,-0.06466552734375,9.722731475830079
1748972198573,0.32302825927734374,-0.06451583862304688,9.721683654785156
1748972198643,0.3209326171875,-0.06301895141601563,9.734107818603515
1748972198705,0.3146456909179688,-0.0676593017578125,9.72662338256836
1748972198773,0.27842102050781253,-0.04954696655273438,9.729467468261719
1748972198843,0.2788700866699219,-0.06256988525390625,9.709259490966797
1748972198905,0.3243754577636719,-0.05882766723632813,9.714797973632812
1748972198973,0.32602203369140625,-0.05074447631835938,9.722282409667969
1748972199042,0.32946487426757814,-0.07334747314453126,9.720486145019532
1748972199105,0.35581008911132816,-0.04924758911132813,9.717342681884766
1748972199173,0.3082090759277344,-0.06152206420898438,9.715247039794923
1748972199239,0.3153941345214844,-0.056282958984375006,9.722282409667969
1748972199305,0.3234773254394531,-0.05822891235351563,9.721983032226563
1748972199373,0.2944377136230469,-0.05239105224609375,9.716294860839843
1748972199442,0.2942880249023438,-0.05957611083984375,9.718091125488282
1748972199505,0.30132339477539066,-0.056282958984375006,9.717192993164064
1748972199573,0.30641281127929687,-0.061072998046875,9.715247039794923
1748972199645,0.33635055541992187,-0.05119354248046875,9.720037078857422
1748972199705,0.3088078308105469,-0.06361770629882812,9.715396728515625
1748972199773,0.3239263916015625,-0.055384826660156254,9.712402954101563
1748972199844,0.3059637451171875,-0.05239105224609375,9.722881164550781
1748972199905,0.28650421142578125,-0.0556842041015625,9.722581787109375
1748972199973,0.27692413330078125,-0.05912704467773438,9.719288635253907
1748972200039,0.29234207153320313,-0.051492919921875005,9.720785522460938
1748972200105,0.2935395812988281,-0.05837860107421875,9.7189892578125
1748972200173,0.2796185302734375,-0.05134323120117188,9.719288635253907
1748972200245,0.29593460083007816,-0.05403762817382813,9.729766845703125
1748972200305,0.3203338623046875,-0.0736468505859375,9.72422836303711
1748972200373,0.28874954223632815,-0.04700225830078125,9.709409179687501
1748972200442,0.29608428955078125,-0.058528289794921876,9.718689880371095
1748972200505,0.29488677978515626,-0.06436614990234375,9.71135513305664
1748972200573,0.2721340942382813,-0.062120819091796876,9.725425872802735
1748972200644,0.27378067016601565,-0.05763015747070313,9.723180541992187
1748972200705,0.29413833618164065,-0.062120819091796876,9.725126495361328
1748972200773,0.30177246093750004,-0.06032455444335938,9.715247039794923
1748972200845,0.30641281127929687,-0.057330780029296875,9.714348907470704
1748972200905,0.31748977661132816,-0.05718109130859375,9.717642059326172
1748972200973,0.2942880249023438,-0.06316864013671876,9.708660736083985
1748972201039,0.2996768188476563,-0.054187316894531254,9.704469451904297
1748972201105,0.29338989257812503,-0.05553451538085938,9.715546417236329
1748972201173,0.2998265075683594,-0.05313949584960938,9.712402954101563
1748972201244,0.31210098266601566,-0.053887939453125006,9.71749237060547
1748972201305,0.298179931640625,-0.05284011840820313,9.712103576660157
1748972201373,0.27647506713867187,-0.06062393188476563,9.723030853271485
1748972201442,0.2903961181640625,-0.05987548828125,9.71419921875
1748972201505,0.29832962036132815,-0.05358856201171875,9.7189892578125
1748972201573,0.28919860839843753,-0.0622705078125,9.71854019165039
1748972201644,0.28770172119140625,-0.05284011840820313,9.715396728515625
1748972201705,0.30252090454101566,-0.06152206420898438,9.71315139770508
1748972201773,0.2992277526855469,-0.0628692626953125,9.729168090820313
1748972201844,0.31180160522460937,-0.05987548828125,9.707762603759766
1748972201929,0.2974314880371094,-0.0544866943359375,9.718091125488282
1748972201973,0.3065625,-0.060474243164062504,9.718689880371095
1748972202039,0.30386810302734374,-0.062120819091796876,9.718240814208984
1748972202105,0.28530670166015626,-0.05239105224609375,9.716294860839843
1748972202173,0.30566436767578126,-0.06496490478515625,9.71464828491211
1748972202239,0.2956352233886719,-0.060923309326171876,9.70985824584961
1748972202305,0.29937744140625,-0.05553451538085938,9.702224121093751
1748972202373,0.2942880249023438,-0.05358856201171875,9.701176300048829
1748972202444,0.2992277526855469,-0.06795867919921875,9.700727233886719
1748972202505,0.2860551452636719,-0.06870712280273437,9.695338439941407
1748972202573,0.2908451843261719,-0.05957611083984375,9.705666961669923
1748972202644,0.29368927001953127,-0.056282958984375006,9.701325988769531
1748972202705,0.28291168212890627,-0.06197113037109375,9.690548400878907
1748972202773,0.2920426940917969,-0.05718109130859375,9.690398712158204
1748972202842,0.30671218872070316,-0.050295410156250005,9.688452758789063
1748972202905,0.2884501647949219,-0.0640667724609375,9.694739685058595
1748972202973,0.29309051513671874,-0.057779846191406255,9.698182525634767
1748972203043,0.30611343383789064,-0.05718109130859375,9.686357116699218
1748972203105,0.29488677978515626,-0.055085449218750006,9.70267318725586
1748972203173,0.2836601257324219,-0.057779846191406255,9.705666961669923
1748972203244,0.2944377136230469,-0.05523513793945313,9.698182525634767
1748972203305,0.29847930908203124,-0.05179229736328125,9.700427856445312
1748972203373,0.30147308349609375,-0.053887939453125006,9.701625366210939
1748972203441,0.2944377136230469,-0.0592767333984375,9.696685638427734
1748972203505,0.29683273315429687,-0.05643264770507813,9.694889373779297
1748972203573,0.2820135498046875,-0.05358856201171875,9.700727233886719
1748972203643,0.2944377136230469,-0.05553451538085938,9.697284393310547
1748972203705,0.2935395812988281,-0.05583389282226563,9.69159622192383
1748972203773,0.28889923095703124,-0.052690429687500005,9.69548812866211
1748972203842,0.30222152709960937,-0.05164260864257813,9.697134704589844
1748972203905,0.29832962036132815,-0.06391708374023437,9.699230346679688
1748972203973,0.2980302429199219,-0.053887939453125006,9.700727233886719
1748972204043,0.29952713012695314,-0.05703140258789063,9.699679412841798
1748972204105,0.2992277526855469,-0.05643264770507813,9.689500579833984
1748972204173,0.2900967407226563,-0.047151947021484376,9.70417007446289
1748972204243,0.300574951171875,-0.0532891845703125,9.703421630859376
1748972204305,0.2947370910644531,-0.0568817138671875,9.709109802246095
1748972204373,0.305364990234375,-0.05882766723632813,9.696236572265626
1748972204442,0.30252090454101566,-0.055384826660156254,9.697583770751953
1748972204505,0.2932402038574219,-0.06780899047851563,9.708061981201173
1748972204573,0.3016227722167969,-0.053887939453125006,9.69264404296875
1748972204644,0.2896476745605469,-0.056582336425781254,9.70027816772461
1748972204705,0.3050656127929688,-0.05523513793945313,9.702972564697266
1748972204773,0.30566436767578126,-0.05254074096679688,9.704469451904297
1748972204845,0.279019775390625,-0.047900390625000004,9.700128479003906
1748972204905,0.2977308654785156,-0.06631210327148437,9.702373809814453
1748972204973,0.2893482971191406,-0.056133270263671875,9.701176300048829
1748972205044,0.2881507873535156,-0.049846343994140625,9.701475677490235
1748972205105,0.2962339782714844,-0.06122268676757813,9.709708557128907
1748972205173,0.2954855346679688,-0.05014572143554688,9.703870697021484
1748972205245,0.28979736328125,-0.049846343994140625,9.700876922607423
1748972205305,0.2977308654785156,-0.056582336425781254,9.695338439941407
1748972205373,0.2924917602539063,-0.05074447631835938,9.706116027832032
1748972205442,0.29653335571289063,-0.05942642211914063,9.69878128051758
1748972205505,0.29338989257812503,-0.058528289794921876,9.704918518066407
1748972205573,0.29728179931640625,-0.05583389282226563,9.704020385742188
1748972205642,0.2797682189941406,-0.05583389282226563,9.708960113525391
1748972205705,0.3085084533691406,-0.07200027465820313,9.694889373779297
1748972205773,0.30027557373046876,-0.0401165771484375,9.696535949707032
1748972205839,0.2966830444335938,-0.04954696655273438,9.691895599365235
1748972205905,0.30027557373046876,-0.05239105224609375,9.704469451904297
1748972205973,0.2986289978027344,-0.0544866943359375,9.710457000732422
1748972206044,0.3052153015136719,-0.05882766723632813,9.704918518066407
1748972206105,0.3004252624511719,-0.0580792236328125,9.705217895507813
1748972206173,0.29832962036132815,-0.05478607177734375,9.700727233886719
1748972206244,0.30566436767578126,-0.06197113037109375,9.704469451904297
1748972206305,0.3035687255859375,-0.060174865722656255,9.700727233886719
1748972206373,0.30147308349609375,-0.048648834228515625,9.705666961669923
1748972206442,0.30132339477539066,-0.0544866943359375,9.717941436767578
1748972206505,0.29368927001953127,-0.056582336425781254,9.710906066894532
1748972206573,0.27797195434570315,-0.046403503417968756,9.709708557128907
1748972206644,0.29294082641601565,-0.05957611083984375,9.700128479003906
1748972206705,0.22378463745117189,-0.12708572387695313,9.750723266601563
1748972206773,0.31748977661132816,-0.108973388671875,9.692793731689454
1748972206844,0.3085084533691406,-0.0383203125,9.693991241455079
1748972206933,0.29758117675781254,-0.05433700561523438,9.707612915039062
1748972206973,0.2962339782714844,-0.05942642211914063,9.6998291015625
1748972207038,0.2938389587402344,-0.06002517700195313,9.710007934570314
1748972207105,0.2878514099121094,-0.05044509887695313,9.707912292480469
1748972207173,0.3097059631347656,-0.05478607177734375,9.707762603759766
1748972207242,0.3011737060546875,-0.06960525512695313,9.710906066894532
1748972207305,0.29368927001953127,-0.055085449218750006,9.705068206787109
1748972207373,0.29533584594726564,-0.06032455444335938,9.710606689453126
1748972207444,0.28979736328125,-0.0544866943359375,9.704469451904297
1748972207505,0.2980302429199219,-0.05942642211914063,9.715247039794923
1748972207573,0.29054580688476567,-0.05553451538085938,9.709558868408203
1748972207644,0.3299139404296875,-0.077838134765625,9.722432098388673
1748972207705,0.29937744140625,-0.06436614990234375,9.70596633911133
1748972207773,0.3052153015136719,-0.04939727783203125,9.708960113525391
1748972207844,0.300574951171875,-0.0508941650390625,9.710457000732422
1748972207905,0.3094065856933594,-0.06256988525390625,9.71464828491211
1748972207973,0.296982421875,-0.0580792236328125,9.707163848876954
1748972208044,0.2847079467773438,-0.06182144165039063,9.710007934570314
1748972208105,0.28306137084960936,-0.05134323120117188,9.710157623291016
1748972208173,0.2704875183105469,-0.0544866943359375,9.710457000732422
1748972208239,0.3020718383789063,-0.06361770629882812,9.724976806640626
1748972208305,0.2860551452636719,-0.05987548828125,9.713450775146486
1748972208373,0.3001258850097656,-0.05284011840820313,9.708361358642579
1748972208441,0.3001258850097656,-0.06062393188476563,9.708061981201173
1748972208506,0.28755203247070316,-0.039667510986328126,9.697583770751953
1748972208573,0.295784912109375,-0.07454498291015625,9.71464828491211
1748972208644,0.3023712158203125,-0.05523513793945313,9.713750152587892
1748972208705,0.2950364685058594,-0.05718109130859375,9.695338439941407
1748972208773,0.2950364685058594,-0.05643264770507813,9.708960113525391
1748972208843,0.28740234375,-0.07110214233398438,9.720037078857422
1748972208905,0.27931915283203124,-0.05748046875,9.718240814208984
1748972208973,0.30267059326171875,-0.008382568359375,9.689650268554688
1748972209043,0.3339555358886719,-0.051492919921875005,9.697583770751953
1748972209105,0.31180160522460937,-0.07454498291015625,9.713301086425782
1748972209173,0.29683273315429687,-0.053738250732421874,9.708660736083985
1748972209243,0.3034190368652344,-0.04819976806640625,9.709109802246095
1748972209305,0.2797682189941406,-0.05882766723632813,9.71270233154297
1748972209373,0.29758117675781254,-0.04655319213867188,9.704619140625
1748972209439,0.28994705200195314,-0.04954696655273438,9.702373809814453
1748972209506,0.2760260009765625,-0.058977355957031255,9.698481903076173
1748972209573,0.279019775390625,-0.067060546875,9.703271942138672
1748972209644,0.28949798583984376,-0.0556842041015625,9.709259490966797
1748972209705,0.29338989257812503,-0.06122268676757813,9.710457000732422
1748972209773,0.3046165466308594,-0.059725799560546876,9.706415405273438
1748972209844,0.2847079467773438,-0.0592767333984375,9.702373809814453
1748972209906,0.2878514099121094,-0.060474243164062504,9.710157623291016
1748972209973,0.2755769348144531,-0.04879852294921875,9.71419921875
1748972210044,0.28575576782226564,-0.052690429687500005,9.701775054931641
1748972210105,0.3046165466308594,-0.05912704467773438,9.70985824584961
1748972210173,0.29234207153320313,-0.05059478759765625,9.714348907470704
1748972210244,0.30222152709960937,-0.061072998046875,9.71704330444336
1748972210305,0.295784912109375,-0.04834945678710938,9.712402954101563
1748972210373,0.30072463989257814,-0.05358856201171875,9.709259490966797
1748972210442,0.296982421875,-0.05598358154296875,9.708660736083985
1748972210506,0.29877868652343753,-0.0580792236328125,9.706415405273438
1748972210573,0.2956352233886719,-0.07409591674804687,9.71180419921875
1748972210644,0.28994705200195314,-0.07304809570312501,9.699080657958985
1748972210705,0.28740234375,-0.0508941650390625,9.704319763183594
1748972210773,0.2890489196777344,-0.05822891235351563,9.706116027832032
1748972210844,0.2817141723632813,-0.05882766723632813,9.702972564697266
1748972210905,0.288599853515625,-0.0592767333984375,9.70985824584961
1748972210973,0.29144393920898437,-0.05358856201171875,9.696835327148438
1748972211039,0.31030471801757814,-0.055085449218750006,9.704319763183594
1748972211106,0.3165916442871094,-0.05643264770507813,9.710007934570314
1748972211173,0.31449600219726564,-0.05553451538085938,9.698930969238281
1748972211239,0.31150222778320313,-0.06421646118164062,9.699230346679688
1748972211306,0.30686187744140625,-0.05403762817382813,9.708061981201173
1748972211373,0.30566436767578126,-0.0568817138671875,9.70746322631836
1748972211442,0.29264144897460936,-0.058977355957031255,9.716743927001954
1748972211505,0.30072463989257814,-0.0568817138671875,9.705816650390625
1748972211573,0.2950364685058594,-0.0622705078125,9.705367584228517
1748972211644,0.2992277526855469,-0.053438873291015626,9.70596633911133
1748972211706,0.3251239013671875,-0.061671752929687504,9.707163848876954
1748972211773,0.3143463134765625,-0.04999603271484375,9.702373809814453
1748972211844,0.2954855346679688,-0.06182144165039063,9.712552642822265
1748972211932,0.2812651062011719,-0.05718109130859375,9.713750152587892
1748972211973,0.2947370910644531,-0.05194198608398438,9.700427856445312
1748972212040,0.3020718383789063,-0.0508941650390625,9.705367584228517
1748972212105,0.298179931640625,-0.0568817138671875,9.70985824584961
1748972212173,0.29533584594726564,-0.056582336425781254,9.709558868408203
1748972212239,0.2966830444335938,-0.0568817138671875,9.703421630859376
1748972212306,0.2890489196777344,-0.05987548828125,9.716444549560547
1748972212373,0.28994705200195314,-0.04775070190429688,9.703421630859376
1748972212444,0.2832110595703125,-0.060474243164062504,9.70701416015625
1748972212506,0.29608428955078125,-0.05942642211914063,9.705217895507813
1748972212573,0.30192214965820313,-0.0544866943359375,9.708810424804687
1748972212644,0.2893482971191406,-0.04685256958007813,9.713600463867188
1748972212705,0.2836601257324219,-0.05837860107421875,9.715097351074219
1748972212773,0.28156448364257813,-0.058977355957031255,9.721084899902344
1748972212839,0.2851570129394531,-0.057330780029296875,9.714797973632812
1748972212906,0.2896476745605469,-0.06436614990234375,9.718689880371095
1748972212973,0.28156448364257813,-0.056133270263671875,9.723330230712891
1748972213041,0.29189300537109375,-0.06271957397460938,9.72707244873047
1748972213106,0.31284942626953127,-0.05703140258789063,9.724827117919922
