timestamp,AccX,AccY,AccZ
1749314416884,1.8938134908676147,1.954267144203186,9.063250541687012
1749314416963,2.254140853881836,1.7076643705368042,11.320982933044434
1749314417018,0.3687070608139038,1.9638439416885376,10.809821128845215
1749314417085,-0.181959331035614,2.0655975341796875,8.183381080627441
1749314417151,-0.3878606855869293,2.4414870738983154,10.868478775024414
1749314417218,,2.0260932445526123,
1749314417219,-2.1559786796569824,2.4450783729553223,7.965508937835693
1749314417286,-2.075772762298584,2.9933507442474365,8.322244644165039
1749314417341,-0.16759411990642548,0.6314706802368164,8.301894187927246
1749314417345,0.21428105235099792,1.061229944229126,10.939107894897461
1749314417419,-0.10654197633266449,1.0109516382217407,11.868058204650879
1749314417484,,1.3401544094085693,
1749314417485,0.33279404044151306,1.0743980407714844,9.425971984863281
1749314417553,-0.2885012924671173,0.9080010056495667,10.166977882385254
1749314417619,,0.9690531492233276,
1749314417620,-0.5626373887062073,,9.453505516052246
1749314417685,,1.4790180921554565,
1749314417686,2.383427858352661,,10.757147789001465
1749314417752,-0.9361328482627869,2.697666883468628,7.662642478942871
1749314417801,-0.21547815203666687,2.320580005645752,8.972270965576172
1749314417805,,2.7287914752960205,
1749314417806,-0.8200140595436096,,9.419986724853516
1749314417886,,2.1422119140625,
1749314417887,-0.8942343592643738,,9.339780807495117
1749314417954,-1.2282254695892334,2.4450783729553223,9.724050521850586
1749314418019,1.2749123573303223,3.1465795040130615,9.168595314025879
1749314418086,,2.8006174564361572,
1749314418087,-0.9744400978088379,,11.3269681930542
1749314418113,0.21188685297966003,3.0651767253875732,10.371682167053223
1749314418156,-0.42377370595932007,2.6785130500793457,10.69370174407959
1749314418219,,2.3050177097320557,
1749314418220,1.725022315979004,1.9003976583480835,12.401965141296387
1749314418283,-0.11372458189725876,3.028066635131836,
1749314418284,,,6.537367820739746
1749314418286,-1.0845733880996704,3.205237627029419,9.064447402954102
1749314418354,-0.9828197956085205,3.7846343517303467,11.60948371887207
1749314418421,,2.362478494644165,
1749314418422,1.7824832201004028,1.8070237636566162,7.892486095428467
1749314418487,,1.4359225034713745,
1749314418488,-0.4752490520477295,,10.651803016662598
1749314418554,0.7745242714881897,2.058414936065674,7.357381820678711
1749314418620,,2.2667105197906494,
1749314418621,1.7178397178649902,,9.44871711730957
1749314418688,1.1252747774124146,3.0208840370178223,6.4164605140686035
1749314418729,0.6045359373092651,3.071162223815918,9.745597839355469
1749314418755,0.9493009448051453,3.339312791824341,9.406818389892578
1749314418822,1.136048674583435,3.5871126651763916,8.404845237731934
1749314418888,,3.093907117843628,
1749314418889,-0.7038952708244324,3.4362781047821045,10.848128318786621
1749314418955,,3.5727474689483643,
1749314418956,-0.004788403399288654,3.397970676422119,7.560888767242432
1749314419021,1.1180921792984009,3.334524393081665,9.059659004211426
1749314419088,0.5482721924781799,3.5200750827789307,
1749314419089,,,9.193734169006348
1749314419154,,4.294599533081055,
1749314419155,0.47165772318840027,,8.540117263793945
1749314419189,,2.6426000595092773,
1749314419190,0.9265560507774353,,11.774683952331543
1749314419222,-0.9169792532920837,3.02327823638916,8.355764389038086
1749314419287,,2.3098061084747314,
1749314419288,-0.524330198764801,3.312976598739624,11.130643844604492
1749314419354,,3.266289710998535,
1749314419355,-1.9608511924743652,,6.890512466430664
1749314419422,-2.1595699787139893,1.6382324695587158,8.287528991699219
1749314419490,,1.8177976608276367,
1749314419491,-5.583278179168701,,7.0353617668151855
1749314419554,,1.998559832572937,
1749314419555,-3.4572272300720215,,5.549759387969971
1749314419622,-5.456385612487793,2.7670986652374268,
1749314419623,,,7.787140846252441
1749314419684,,1.5604209899902344,
1749314419685,,0.8924387097358704,
1749314419686,-2.631227731704712,,6.0621185302734375
1749314419689,1.7501614093780518,-0.046088382601737976,5.0900726318359375
1749314419757,2.183511972427368,-2.208052635192871,-0.10295066982507706
1749314419818,,-6.966528415679932,
1749314419819,-2.8371291160583496,,2.3355438709259033
1749314419824,-10.808623313903809,-12.311583518981934,-0.2190694510936737
1749314419888,,-10.64162826538086,
1749314419889,-17.006013870239258,,-1.4293384552001953
1749314419959,-18.333599090576172,-10.234613418579102,-10.467450141906738
1749314419965,-14.964958190917969,-11.266514778137207,-4.671087741851807
1749314420020,,-13.19624137878418,
1749314420021,-6.874950408935547,,3.114856481552124
1749314420107,,-8.625710487365723,
1749314420108,-4.398148536682129,,2.6874914169311523
1749314420150,-9.66419506072998,-8.873510360717773,-0.8427590131759644
1749314420154,-4.4723687171936035,-10.430938720703125,3.8810009956359863
1749314420221,-3.8738183975219727,-11.89618968963623,1.820790410041809
1749314420266,-6.244078159332275,-8.717886924743652,-3.7277719974517822
1749314420294,,-8.838793754577637,
1749314420295,-11.653777122497559,,6.636727333068848
1749314420309,-8.719682693481445,-6.804919719696045,0.09457096457481384
1749314420348,-4.025850296020508,-5.686827659606934,3.095702886581421
1749314420375,-5.96754789352417,-6.536769390106201,0.7015010714530945
1749314420433,-5.0685248374938965,-6.138134479522705,-0.6416460275650024
1749314420508,-4.526238441467285,-3.6278140544891357,-3.286041736602783
1749314420574,,-4.046799659729004,
1749314420575,-3.772064685821533,-5.366004467010498,5.313930511474609
1749314420645,-4.708197593688965,-5.174468517303467,5.550956726074219
1749314420707,-0.8966285586357117,-8.921394348144531,10.02571964263916
1749314420775,-14.79736328125,-13.886968612670898,4.322731018066406
1749314420841,-3.6284127235412598,-8.272565841674805,
1749314420842,-3.355473756790161,,4.267664432525635
1749314420909,,-8.052298545837402,
1749314420910,-5.254075527191162,-11.868656158447266,1.114500880241394
1749314420976,-1.5861586332321167,-8.97885513305664,
1749314420977,,,2.759317398071289
1749314421040,,-11.392210006713867,
1749314421041,-0.7912836670875549,-11.365874290466309,-1.7154455184936523
1749314421042,,,0.4225766062736511
1749314421108,,-9.026739120483398,
1749314421109,-0.32441434264183044,-8.294113159179688,-1.3227964639663696
1749314421177,-0.7529764175415039,-6.019621849060059,-1.0235211849212646
1749314421240,,-6.21115779876709,
1749314421241,,-6.687603950500488,
1749314421242,-1.1025298833847046,,-0.8487445116043091
1749314421310,-0.5829881429672241,-6.354809761047363,-0.750582218170166
1749314421375,1.657984733581543,-2.4881742000579834,
1749314421376,-0.17836803197860718,,-4.327519416809082
1749314421440,-13.648146629333496,-40.32135009765625,-6.491878032684326
1749314421508,,-5.866392612457275,
1749314421509,3.728969097137451,-6.86716890335083,-0.27413609623908997
1749314421577,2.675520420074463,-12.194268226623535,-2.4456770420074463
1749314421641,,-9.37389850616455,
1749314421642,0.11851298063993454,-6.745064735412598,0.7122750282287598
1749314421708,3.8510735034942627,-6.1321492195129395,
1749314421709,,,1.5837644338607788
1749314421775,,-11.851897239685059,
1749314421776,-1.380257248878479,-10.750564575195312,1.4856021404266357
1749314421842,,-9.237428665161133,
1749314421844,2.0242974758148193,,-0.6955155730247498
1749314421908,,-9.223063468933105,
1749314421909,1.013944387435913,-11.801618576049805,0.25977087020874023
1749314421976,0.4297592043876648,-8.976460456848145,-2.234987258911133
1749314422040,,-5.899911403656006,
1749314422041,-1.1552022695541382,,-0.6380547285079956
1749314422108,,-9.943717956542969,
1749314422109,4.485537052154541,,3.884592294692993
1749314422176,,-3.6062662601470947,
1749314422177,6.860584735870361,-1.0109516382217407,2.2900538444519043
1749314422241,,-17.00661277770996,
1749314422242,-2.9532477855682373,-12.333131790161133,3.487154722213745
1749314422266,2.785653591156006,-7.958924770355225,-0.4967968463897705
1749314422309,,-10.130465507507324,
1749314422310,4.267664432525635,-10.776900291442871,0.21667525172233582
1749314422376,,-10.95885944366455,
1749314422377,4.933252811431885,-12.16553783416748,-0.23343466222286224
1749314422442,2.6874914169311523,-14.559739112854004,3.9181110858917236
1749314422443,,,-0.2669534981250763
1749314422509,2.979583978652954,-12.577340126037598,2.184709072113037
1749314422576,-6.8127007484436035,-12.754510879516602,-1.5071499347686768
1749314422641,,-11.083357810974121,
1749314422642,1.2270283699035645,-9.201516151428223,1.0546458959579468
1749314422708,-6.147112846374512,-9.95329475402832,
1749314422709,-6.429628849029541,,1.5478514432907104
1749314422730,,-8.650849342346191,
1749314422731,-1.1959037780761719,,10.20528507232666
1749314422778,1.6508020162582397,-8.442553520202637,7.061697959899902
1749314422844,4.351461410522461,-9.706692695617676,2.742558002471924
1749314422910,7.875726699829102,-5.164891719818115,0.973242998123169
1749314422978,12.029666900634766,5.364807605743408,8.244433403015137
1749314423043,4.882974147796631,-1.425148606300354,9.173383712768555
1749314423110,-0.6141127347946167,2.3744494915008545,
1749314423111,,,6.27400541305542
1749314423179,1.138442873954773,1.9818004369735718,9.623494148254395
1749314423243,,1.7471686601638794,
1749314423244,3.2620997428894043,,8.021772384643555
1749314423310,-0.3603273630142212,3.334524393081665,6.551733016967773
1749314423378,,1.8525135517120361,
1749314423379,0.05386953800916672,2.077568531036377,12.558785438537598
1749314424038,-0.8224082589149475,2.230797529220581,8.699332237243652
1749314424050,2.5342624187469482,2.5755624771118164,12.685677528381348
1749314424122,,2.053626537322998,
1749314424123,0.6811503767967224,1.9698294401168823,10.008959770202637
1749314424143,1.0307037830352783,2.25473952293396,9.824606895446777
1749314424225,0.9205705523490906,2.427121877670288,8.744821548461914
1749314424266,0.8810662031173706,2.076371431350708,9.714473724365234
1749314424279,,2.0464439392089844,
1749314424280,0.970848798751831,,9.498994827270508
1749314424333,1.459265947341919,2.0655975341796875,9.651026725769043
1749314424397,1.765723705291748,2.337339401245117,10.159794807434082
1749314424399,1.4449007511138916,2.492962598800659,9.44871711730957
1749314424465,1.5071499347686768,2.4127566814422607,9.059659004211426
1749314424534,,2.3756465911865234,
1749314424535,1.1659762859344482,2.8544869422912598,8.829815864562988
1749314424599,,2.1541829109191895,
1749314424600,1.115697979927063,2.363675594329834,9.254786491394043
1749314424634,1.5322890281677246,2.18770170211792,9.159018516540527
1749314424654,1.3742717504501343,2.1984755992889404,9.39245319366455
1749314424720,1.3239935636520386,2.161365509033203,9.264363288879395
1749314424788,1.8052281141281128,2.694075345993042,8.83699893951416
1749314424853,1.7753005027770996,2.647388458251953,9.239224433898926
1749314424854,,,9.443928718566895
1749314424920,,2.0488381385803223,
1749314424921,1.2880805730819702,1.9794062376022339,9.169792175292969
1749314424988,1.2880805730819702,1.711255669593811,
1749314424989,,,10.490194320678711
1749314425054,0.2669534981250763,1.0660183429718018,10.101137161254883
1749314425121,-0.21308395266532898,1.370081901550293,11.287464141845703
1749314425171,-2.10210919380188,0.0867898091673851,10.315418243408203
1749314425228,-3.6762967109680176,-0.436343252658844,10.775104522705078
1749314425295,-0.8930372595787048,0.7272387742996216,10.796652793884277
1749314425362,1.1623848676681519,0.8409633636474609,10.94150161743164
1749314425428,-1.0007762908935547,2.1769278049468994,7.467514991760254
1749314425495,-1.6400281190872192,1.8848352432250977,8.614337921142578
1749314425561,-1.578976035118103,2.052429437637329,9.682151794433594
1749314425628,-0.5985504388809204,2.366069793701172,8.835801124572754
1749314425693,-1.7729063034057617,2.0392613410949707,9.530119895935059
1749314425761,-2.3235726356506348,1.9171570539474487,9.17577838897705
1749314425828,-1.2246341705322266,1.4502876996994019,10.360907554626465
1749314425895,-1.985990285873413,1.6765397787094116,10.143035888671875
1749314425962,-1.9692308902740479,1.6310498714447021,9.354146003723145
1749314426028,0.0802057534456253,0.12509703636169434,7.38132381439209
1749314426095,,-0.7463923692703247,
1749314426096,-5.638344764709473,-0.4040215313434601,3.19865345954895
1749314426161,,-1.8668787479400635,
1749314426162,-5.926846504211426,-3.4278981685638428,6.696582317352295
1749314426229,-0.061052143573760986,-2.956240653991699,
1749314426230,,,3.117250680923462
1749314426291,,-2.737171173095703,
1749314426292,6.691793918609619,-3.7846343517303467,-5.566518783569336
1749314426297,-1.4269442558288574,-7.957727909088135,-9.514557838439941
1749314426362,-12.570755958557129,-14.296377182006836,
1749314426424,,-10.480019569396973,
1749314426425,-21.204246520996094,,-18.73822021484375
1749314426428,,-7.5435309410095215,
1749314426429,-12.756306648254395,,-14.140154838562012
1749314426495,-13.050793647766113,-9.266159057617188,-14.427459716796875
1749314426560,-3.2992098331451416,-6.559514045715332,
1749314426561,,,-0.11133038252592087
1749314426562,-5.570110321044922,-7.921814918518066,-0.2454056739807129
1749314426594,,-8.877100944519043,
1749314426595,-8.163030624389648,,-1.7980455160140991
1749314426659,,-8.069058418273926,
1749314426660,-6.628347396850586,,-6.956353187561035
1749314426720,-6.3745622634887695,-10.211869239807129,-2.187103271484375
1749314426737,-8.752004623413086,-10.497976303100586,0.8140285611152649
1749314426789,-4.155137062072754,-11.124059677124023,-2.406172752380371
1749314426799,-6.640318393707275,-8.362347602844238,-7.754819393157959
1749314426853,-4.14795446395874,-7.041945934295654,-4.711789131164551
1749314426932,-3.265691041946411,-5.515642166137695,2.5318682193756104
1749314427001,-4.28322696685791,-4.2993879318237305,0.8798691034317017
1749314427066,-3.293224334716797,-2.0823569297790527,2.2685060501098633
1749314427133,,-11.338340759277344,
1749314427134,-15.200786590576172,,9.761159896850586
1749314427201,-4.064157485961914,-3.8085763454437256,0.690727174282074
1749314427266,-6.466738700866699,-7.879916191101074,-0.3531447649002075
1749314427333,-5.517437934875488,-9.436147689819336,0.3842693865299225
1749314427401,-3.4727895259857178,-9.407417297363281,-0.8212111592292786
1749314427466,-4.6950297355651855,-7.135319709777832,0.37229835987091064
1749314427532,,-4.347271919250488,
1749314427533,-2.585737943649292,-5.161300182342529,-0.39384618401527405
1749314427601,-2.363077163696289,-4.662109375,0.5602431893348694
1749314427666,1.535880446434021,-2.4678235054016113,1.0223240852355957
1749314427733,-6.661866188049316,-55.10674285888672,-1.2018892765045166
1749314427800,,-7.547122478485107,
1749314427801,-0.29209262132644653,-9.731831550598145,1.7190368175506592
1749314427866,,-9.814431190490723,
1749314427867,-1.5753847360610962,,1.8782511949539185
1749314427933,-2.6623523235321045,-9.415796279907227,0.5638344883918762
1749314428038,-1.9129672050476074,-10.745776176452637,0.8882488012313843
1749314428107,,-11.35509967803955,
1749314428108,-1.9117701053619385,-9.370306968688965,1.4736311435699463
1749314428173,4.716577529907227,-8.51916790008545,-0.9205705523490906
1749314428240,2.5558102130889893,-10.659584045410156,-1.1863269805908203
1749314428402,,-13.13758373260498,
1749314428403,2.389413356781006,-11.066598892211914,-0.10773907601833344
1749314428474,0.5793967843055725,-8.76337718963623,-0.33758243918418884
1749314428540,,-6.965331077575684,
1749314428541,-0.004788403399288654,,-2.4013843536376953
1749314428721,2.030282974243164,-5.673659324645996,-1.765723705291748
1749314428730,,-9.470863342285156,
1749314428731,-0.002394201699644327,,
1749314428732,,,-6.145915985107422
1749314428801,0.6847416758537292,-8.09778881072998,-4.337096214294434
1749314428866,1.5909470319747925,-7.713519096374512,-1.2090718746185303
1749314428874,-0.3016694188117981,-22.61503028869629,
1749314428875,,,-14.538789749145508
1749314428932,0.5363011956214905,-14.845846176147461,-3.07415509223938
1749314429120,,-2.890399932861328,
1749314429129,10.194510459899902,,
1749314429130,,,5.438429355621338
1749314429134,1.802833914756775,-9.966463088989258,-1.456871747970581
1749314429200,,-9.370306968688965,
1749314429201,1.6364368200302124,,-0.05267243832349777
1749314429269,-0.8020575642585754,-8.939350128173828,
1749314429270,-1.37906014919281,,1.2461819648742676
1749314429309,-1.9405004978179932,-10.057442665100098,-0.28371289372444153
1749314429310,-0.8092401623725891,-9.91977596282959,-0.16879121959209442
1749314429378,,-9.353547096252441,
1749314429379,0.002394201699644327,,0.1496376097202301
1749314429444,-0.7374141216278076,-9.335591316223145,0.0586579404771328
1749314429510,,-10.0765962600708,
1749314429511,0.02513911761343479,,0.3519476354122162
1749314429710,-0.7254431247711182,-10.490793228149414,-0.6596025824546814
1749314429714,-0.9756371974945068,-11.134833335876465,-0.1951274424791336
1749314429761,,-8.385092735290527,
1749314429762,3.8343141078948975,-8.173206329345703,-1.8746598958969116
1749314429832,5.713762283325195,-12.788029670715332,-1.1528080701828003
1749314429899,0.2454056739807129,-10.484807968139648,2.5534160137176514
1749314429900,,,3.113659381866455
1749314429968,-3.9157168865203857,-10.307637214660645,1.1552022695541382
1749314430033,0.8391677141189575,-7.870339393615723,1.2030863761901855
1749314430100,,-6.017227649688721,
1749314430101,3.4584243297576904,,-1.5454572439193726
1749314432455,,-7.281365871429443,
1749314432457,3.3865983486175537,-9.699509620666504,
1749314432458,3.827131509780884,,-3.843890905380249
1749314432467,4.095282077789307,-9.6803560256958,-1.0091559886932373
1749314432532,3.688267707824707,-9.30686092376709,
1749314432533,3.046621561050415,,-1.8136078119277954
1749314432598,,-9.402628898620605,
1749314432599,1.902193307876587,,-0.788889467716217
1749314433019,,-9.201516151428223,
1749314433020,1.9692308902740479,,-0.46327802538871765
1749314433043,,-9.225458145141602,
1749314433044,3.3482911586761475,-9.139266014099121,-1.1623848676681519
1749314433112,,-9.115324020385742,
1749314433113,4.23893404006958,-8.646060943603516,-1.8854337930679321
1749314437530,,-7.908646583557129,
1749314437531,3.7026329040527344,-10.120888710021973,0.36990416049957275
1749314437532,-0.7410054206848145,-9.34037971496582,1.533486247062683
1749314437539,5.431246757507324,-12.218210220336914,-1.047463297843933
1749314437540,0.3315969407558441,-9.479243278503418,2.007538080215454
1749314437606,,-9.551069259643555,
1749314437607,0.32680854201316833,,-0.424970805644989
1749314437675,3.3051953315734863,-6.826467514038086,-0.3148375153541565
1749314437740,,-5.4665608406066895,
1749314437741,1.945288896560669,-6.443395137786865,-1.3395558595657349
1749314437808,0.25019407272338867,-9.685144424438477,-5.562927722930908
1749314437875,-3.6523547172546387,-13.463194847106934,-9.743204116821289
1749314437940,,-8.037933349609375,
1749314437941,0.08738835901021957,,-1.9955670833587646
1749314438008,2.409764051437378,-19.803041458129883,-5.826289653778076
1749314438075,10.02811336517334,-0.2519897222518921,7.380126953125
1749314438141,-4.37540340423584,-16.499042510986328,-0.7841010689735413
1749314438208,1.4425065517425537,-9.388263702392578,-1.8710685968399048
1749314438275,,-9.800065994262695,
1749314438276,-0.07541735470294952,-10.298060417175293,1.945288896560669
1749314438341,-0.243011474609375,-9.551069259643555,0.8152256608009338
1749314438409,,-9.139266014099121,
1749314438410,0.4321534037590027,,-0.28131869435310364
1749314438476,-1.1192892789840698,-10.815207481384277,-0.6787561774253845
1749314438542,2.385822057723999,-9.651625633239746,0.8535329103469849
1749314438608,1.1025298833847046,-10.80084228515625,0.5901707410812378
1749314438678,0.5805938839912415,-9.804854393005371,0.7433996200561523
1749314438742,,-8.899846076965332,
1749314438743,0.0586579404771328,-9.172784805297852,0.50876784324646
1749314438808,,-10.216657638549805,
1749314438809,1.1216834783554077,,-0.20949265360832214
1749314438876,,-10.575787544250488,
1749314438877,1.600523829460144,,-1.5981296300888062
1749314438940,,-9.79527759552002,
1749314438941,1.643619418144226,,-1.382651448249817
1749314439007,,-9.110535621643066,
1749314439008,1.8543092012405396,-9.100958824157715,0.07302315533161163
1749314439083,1.1647791862487793,-9.34037971496582,-1.095347285270691
1749314439145,,-9.618106842041016,
1749314439147,1.7489643096923828,-9.57979965209961,-0.52552729845047
1749314439208,,-9.148842811584473,
1749314439209,2.0649988651275635,,0.23582886159420013
1749314439276,,-9.608530044555664,
1749314439277,0.9828197956085205,-9.598953247070312,-1.40180504322052
1749314439341,3.156754970550537,-10.020332336425781,0.6236895322799683
1749314439409,2.390610456466675,-9.239823341369629,-0.5303156971931458
1749314439478,,-9.1632080078125,
1749314439480,1.581370234489441,,-0.008379706181585789
1749314439542,0.9971849918365479,-10.211869239807129,
1749314439543,,,-0.008379706181585789
1749314439608,1.0450690984725952,-9.187150001525879,-0.2861070930957794
1749314439676,2.491166830062866,-10.863091468811035,1.116895079612732
1749314439741,2.8167781829833984,-9.225458145141602,-2.009932279586792
1749314439809,,-10.116100311279297,
1749314439810,-0.5829881429672241,,-0.0035913025494664907
1749314439877,1.3323732614517212,-9.551069259643555,0.05386953800916672
1749314439942,1.820790410041809,-9.98681354522705,-0.4058171808719635
1749314440008,2.256535053253174,-9.359533309936523,0.25019407272338867
1749314440076,1.0785878896713257,-9.603741645812988,0.0011971008498221636
1749314440142,,-10.025120735168457,
1749314440143,0.7912836670875549,-9.914987564086914,-0.7122750282287598
1749314440209,1.2653355598449707,-10.111311912536621,-0.9085995554924011
1749314440277,1.2509703636169434,-9.867103576660156,-2.412158250808716
1749314440341,,-10.58536434173584,
1749314440342,0.8966285586357117,,-2.560598611831665
1749314440407,,-8.804078102111816,
1749314440408,1.5526398420333862,-8.267777442932129,-0.6596025824546814
1749314440475,,-8.569446563720703,
1749314440476,-0.7984662652015686,,1.4329297542572021
1749314440542,1.844732403755188,-8.42579460144043,3.927687883377075
1749314440609,5.766434669494629,-9.134477615356445,1.657984733581543
1749314440680,9.917980194091797,-12.553398132324219,-4.236539840698242
1749314440742,-4.480748653411865,-9.560646057128906,3.046621561050415
1749314440808,,-12.989142417907715,
1749314440809,-2.7712883949279785,-10.685920715332031,-6.989871978759766
1749314440876,-1.157596468925476,-9.009979248046875,1.964442491531372
1749314440941,,-9.158419609069824,
1749314440942,1.3323732614517212,-9.258976936340332,0.9445125460624695
1749314441007,,-9.589376449584961,
1749314441008,2.3044190406799316,-9.575011253356934,-1.2725181579589844
1749314441076,0.28371289372444153,-9.943717956542969,-0.23822307586669922
1749314441143,-0.20470423996448517,-9.852738380432129,-0.568622887134552
1749314441207,,-10.029909133911133,
1749314441208,-0.3627215623855591,-10.207080841064453,0.1496376097202301
1749314441278,,-9.780912399291992,
1749314441279,-0.2669534981250763,-9.55585765838623,1.2749123573303223
1749314441341,,-9.718663215637207,
1749314441342,-1.5550340414047241,-9.589376449584961,1.0402805805206299
1749314441408,0.3363853394985199,-9.043498039245605,0.3411737382411957
1749314441476,,-9.03870964050293,
1749314441477,1.5095441341400146,-9.10574722290039,1.0785878896713257
1749314441545,5.397727966308594,-11.490372657775879,-4.791994571685791
1749314441608,,-11.892598152160645,
1749314441609,2.45285964012146,-11.859079360961914,-0.27653029561042786
1749314441679,,-11.068992614746094,
1749314441680,5.498284339904785,,-0.4537012279033661
1749314441742,0.5279214978218079,-9.910199165344238,-5.270834922790527
1749314441808,-0.7697358727455139,-9.469666481018066,3.9899370670318604
1749314441876,-3.6954503059387207,-8.837596893310547,2.036268472671509
1749314441946,3.3435027599334717,-6.060323238372803,
1749314441947,-0.2908954918384552,,-1.4449007511138916
1749314442008,-1.9476830959320068,-10.063427925109863,-5.471948146820068
1749314442076,-0.5303156971931458,-23.116615295410156,-0.5542576909065247
1749314442141,,-2.6174609661102295,
1749314442142,5.287594318389893,-9.244611740112305,4.832695960998535
1749314442209,-1.8950105905532837,-19.142240524291992,-1.746570110321045
1749314442276,2.7018566131591797,-7.951742172241211,1.4951789379119873
1749314442342,-0.4728548228740692,-9.12968921661377,-1.698686122894287
1749314442409,2.1799206733703613,-8.052298545837402,-1.258152961730957
1749314442475,,-8.64127254486084,
1749314442476,1.3754688501358032,-9.019556045532227,-0.333991140127182
1749314442541,,-11.131241798400879,
1749314442542,-0.424970805644989,,1.868674397468567
1749314442608,0.8966285586357117,-9.503185272216797,-2.1583728790283203
1749314442676,,-9.043498039245605,
1749314442677,1.3467384576797485,,1.1839327812194824
1749314442742,3.1950621604919434,-9.440936088562012,0.8056488633155823
1749314442809,1.624465823173523,-11.643601417541504,2.759317398071289
1749314442876,7.260416507720947,-9.9772367477417,4.128800868988037
1749314442941,,-9.440936088562012,
1749314442942,4.004302501678467,-8.488043785095215,-0.03711012750864029
1749314443007,,-8.478466987609863,
1749314443008,3.42490553855896,-9.393052101135254,2.3762452602386475
1749314443075,,-8.64127254486084,
1749314443076,3.448847532272339,-7.458536624908447,-1.722628116607666
1749314443142,,-8.296507835388184,
1749314443143,,-8.684368133544922,
1749314443144,5.364208698272705,,1.2509703636169434
1749314443209,3.2381577491760254,-7.70274543762207,1.8064252138137817
1749314443276,,-8.210315704345703,
1749314443277,,-8.239047050476074,
1749314443341,,-8.880692481994629,
1749314443342,3.8367083072662354,-8.195950508117676,1.701080322265625
1749314443407,4.641160011291504,-8.904634475708008,1.4425065517425537
1749314443474,4.660313606262207,-8.670002937316895,1.701080322265625
1749314443540,4.856637954711914,-9.632472038269043,0.767341673374176
1749314443607,,-9.048286437988281,
1749314443608,3.132812976837158,,0.010773907415568829
1749314443676,0.3842693865299225,-9.584588050842285,0.5710170865058899
1749314443740,,-9.081805229187012,
1749314443741,2.5294740200042725,-9.187150001525879,-0.9421183466911316
1749314443808,,-8.957306861877441,
1749314443809,3.3291375637054443,-8.061875343322754,-1.84233820438385
1749314443876,,-5.931035995483398,
1749314443877,3.870227098464966,-5.035604953765869,1.0642226934432983
1749314443940,,-14.96196460723877,
1749314443941,0.9445125460624695,-17.84458351135254,-4.341884613037109
1749314444009,,-11.811195373535156,
1749314444010,-2.9724013805389404,-8.847173690795898,-2.211045265197754
1749314444079,-1.095347285270691,-10.484807968139648,1.4089876413345337
1749314444146,-1.679532527923584,-11.370662689208984,0.2645592987537384
1749314444210,,-7.6548614501953125,
1749314444211,0.30286651849746704,,-0.9756371974945068
1749314444274,,-9.345168113708496,
1749314444275,1.7202339172363281,,-1.095347285270691
1749314444343,-0.2717418968677521,-9.665990829467773,-2.8862102031707764
1749314444409,-2.029085874557495,-10.163984298706055,
1749314444410,,,0.8918401598930359
1749314444476,-0.7649474143981934,-9.785700798034668,1.1839327812194824
1749314444542,1.6196774244308472,-9.225458145141602,-0.3531447649002075
1749314444609,-1.0330979824066162,-9.07222843170166,0.09696517139673233
1749314444679,,-9.584588050842285,
1749314444680,-2.053027868270874,,-1.3012486696243286
1749314444741,,-13.185467720031738,
1749314444742,5.110423564910889,-11.222222328186035,-3.9205052852630615
1749314444809,5.517437934875488,-10.724227905273438,-4.495113849639893
1749314444875,0.7003039717674255,-7.908646583557129,
1749314444876,,,1.88782799243927
1749314444943,,-8.909422874450684,
1749314444944,1.3563152551651,-9.800065994262695,-1.3299790620803833
1749314445009,0.7242460250854492,-12.050615310668945,
1749314445010,,,-1.765723705291748
1749314445078,1.8303672075271606,-8.435371398925781,1.07379949092865
1749314445142,1.7106571197509766,-6.711545944213867,
1749314445143,,,-0.04189852997660637
1749314445208,,-7.448959827423096,
1749314445209,2.141613483428955,,-5.610811710357666
1749314445276,-0.7410054206848145,-7.788936614990234,-2.6611552238464355
1749314445341,,-20.243574142456055,
1749314445342,1.413776159286499,,-2.9053637981414795
1749314445409,,-3.4745852947235107,
1749314445410,7.547720909118652,-4.743512153625488,6.661866188049316
1749314445477,,-14.047379493713379,
1749314445478,-4.5190558433532715,-15.493477821350098,-1.5310919284820557
1749314445541,,-11.054627418518066,
1749314445542,-2.646790027618408,-10.518326759338379,-1.0761936902999878
1749314445609,2.764105796813965,-8.148066520690918,0.8583213090896606
1749314445677,-1.2294225692749023,-10.590152740478516,-0.6739677786827087
1749314445742,,-9.172784805297852,
1749314445743,-1.3395558595657349,-9.043498039245605,
1749314445744,,,1.1216834783554077
1749314445810,-1.1432312726974487,-10.04427433013916,0.5279214978218079
1749314445876,-0.5590460896492004,-9.618106842041016,0.29807811975479126
1749314445941,-0.2717418968677521,-12.898162841796875,0.46088382601737976
1749314446009,3.530250310897827,-10.226234436035156,-0.333991140127182
1749314446074,,-9.46487808227539,
1749314446075,1.9979612827301025,-9.254188537597656,-0.8224082589149475
1749314446143,0.2454056739807129,-12.40495777130127,-1.8279730081558228
1749314446211,1.9788076877593994,-8.986037254333496,-0.05147533491253853
1749314446276,2.0410568714141846,-7.6979570388793945,-0.013168109580874443
1749314446342,3.3435027599334717,-7.741052627563477,-0.6117185354232788
1749314446343,,,-0.9229647517204285
1749314446409,3.1711201667785645,-8.535927772521973,-2.033874273300171
1749314446474,,-9.776124000549316,
1749314446475,4.6938323974609375,-9.43135929107666,-3.2166099548339844
1749314446541,4.67946720123291,-8.866327285766602,-3.618835926055908
1749314446609,3.1040825843811035,-8.172008514404297,-1.1192892789840698
1749314446676,3.0370447635650635,-7.195174694061279,-0.9469067454338074
1749314446742,3.7169981002807617,-8.04272174835205,-0.5829881429672241
1749314446812,,-10.786477088928223,
1749314446813,5.014655590057373,-11.93090534210205,-0.03232172131538391
1749314446878,2.1559786796569824,-12.706626892089844,
1749314446879,,,0.15442600846290588
1749314446942,,-9.699509620666504,
1749314446943,-0.6643909811973572,,-0.243011474609375
1749314447009,-0.1759738177061081,-9.756970405578613,-0.851138710975647
1749314447075,0.5183446407318115,-9.776124000549316,1.9931728839874268
1749314447143,0.6619967818260193,-10.020332336425781,-0.9085995554924011
1749314447209,,-8.64127254486084,
1749314447210,-0.7362170219421387,,0.585382342338562
1749314447275,,-10.733804702758789,
1749314447276,-1.3060370683670044,-10.202292442321777,-2.713827610015869
1749314447341,,-9.067440032958984,
1749314447342,4.832695960998535,,0.20231004059314728
1749314447409,,-9.79527759552002,
1749314447410,0.5710170865058899,-10.518326759338379,0.30286651849746704
1749314447476,0.7146692276000977,-11.940482139587402,-2.1535844802856445
1749314447541,5.057751178741455,-10.025120735168457,-2.182314872741699
1749314447612,0.1256955862045288,-11.619659423828125,
1749314447613,-0.36750996112823486,,5.61799430847168
1749314447677,1.2509703636169434,-7.79372501373291,0.5805938839912415
1749314447740,,-8.804078102111816,
1749314447741,2.036268472671509,-8.794501304626465,
1749314447742,,,1.1839327812194824
1749314447809,,-9.148842811584473,
1749314447810,2.0697872638702393,-9.804854393005371,0.8631097078323364
1749314447875,10.51174259185791,-14.229339599609375,-14.842853546142578
1749314447941,,-6.2614359855651855,
1749314447942,-0.28131869435310364,,6.886921405792236
1749314448010,-0.8559271097183228,-12.017096519470215,4.487931251525879
1749314448075,2.0219032764434814,-9.201516151428223,-5.941211700439453
1749314448143,-0.5829881429672241,-10.207080841064453,0.10175357013940811
1749314448211,1.3706804513931274,-9.55585765838623,-1.1432312726974487
1749314448277,,-9.867103576660156,
1749314448278,1.313219666481018,,-1.8710685968399048
1749314448341,,-10.211869239807129,
1749314448342,-0.99479079246521,,1.0259153842926025
1749314448409,-0.6643909811973572,-10.149619102478027,0.910993754863739
1749314448474,,-8.569446563720703,
1749314448475,6.048950672149658,-8.358757019042969,-1.6268600225448608
1749314448542,,-10.326790809631348,
1749314448543,,-10.46086597442627,
1749314448544,0.8343793153762817,,-0.46806642413139343
1749314448610,0.010773907415568829,-10.781688690185547,-0.1759738177061081
1749314448676,,-7.798513412475586,
1749314448677,6.388927459716797,,2.6827030181884766
1749314448742,,-10.810419082641602,
1749314448743,3.137601375579834,,-4.6052470207214355
1749314448809,,-9.546280860900879,
1749314448810,2.8646624088287354,-8.971672058105469,-0.5446808934211731
1749314448875,,-9.790489196777344,
1749314448876,1.6531962156295776,,-1.095347285270691
1749314448942,1.6962919235229492,-9.742605209350586,
1749314448943,,,-0.9852139949798584
1749314449009,,-9.029132843017578,
1749314449011,0.9540894031524658,,-0.8415619134902954
1749314449076,1.48081374168396,-9.263765335083008,-1.215057373046875
1749314449141,2.8359320163726807,-9.460089683532715,-1.765723705291748
1749314449207,,-9.077016830444336,
1749314449208,2.007538080215454,-9.177573204040527,-2.297236442565918
1749314449274,1.9500772953033447,-9.412205696105957,-1.5454572439193726
1749314449341,1.6627731323242188,-9.311649322509766,-2.144007682800293
1749314449408,1.8112136125564575,-9.139266014099121,-1.4640543460845947
1749314449475,2.7688941955566406,-8.622118949890137,-0.99479079246521
1749314449542,2.630030632019043,-8.727463722229004,
1749314449543,2.721010208129883,,-0.5734112858772278
1749314449610,2.7114334106445312,-9.843161582946777,-0.6260837316513062
1749314449676,,-10.240599632263184,
1749314449677,2.0841526985168457,-10.341156005859375,-1.5933412313461304
1749314449741,2.3331496715545654,-10.95885944366455,-0.7026981711387634
1749314449809,0.9780313968658447,-9.440936088562012,-1.013944387435913
1749314449878,,-9.474454879760742,
1749314449879,0.30286651849746704,-10.34594440460205,1.6675615310668945
1749314449942,,-10.556633949279785,
1749314449943,-2.0242974758148193,-10.231022834777832,-1.0091559886932373
1749314450012,-0.6308721303939819,-9.73781681060791,
1749314450013,,,0.6955155730247498
1749314450075,0.5710170865058899,-9.694721221923828,1.1839327812194824
1749314450141,,-9.64683723449707,
1749314450142,0.6332663297653198,-9.651625633239746,1.016338586807251
1749314450209,,-9.70429801940918,
1749314450210,0.8583213090896606,-9.67077922821045,0.9397241473197937
1749314450279,0.365115761756897,-9.857526779174805,1.2078747749328613
1749314450343,,-9.819219589233398,
1749314450344,0.5279214978218079,,0.7146692276000977
1749314450410,0.7050924301147461,-9.804854393005371,1.4712369441986084
1749314450475,,-9.225458145141602,
1749314450476,1.2222399711608887,-9.761758804321289,1.8543092012405396
1749314450542,,-10.216657638549805,
1749314450543,-1.2964602708816528,-9.98681354522705,1.07379949092865
1749314450608,0.20709845423698425,-9.484031677246094,1.2222399711608887
1749314450676,0.7098808288574219,-10.231022834777832,0.04908113554120064
1749314450744,1.3611036539077759,-9.79527759552002,0.17836803197860718
1749314450810,,-9.843161582946777,
1749314450812,1.0115501880645752,,1.6484078168869019
1749314450876,1.0211269855499268,-9.824007987976074,1.337161660194397
1749314450943,0.3172317147254944,-9.79527759552002,0.50876784324646
1749314451007,,-9.642048835754395,
1749314451008,-0.9229647517204285,,0.973242998123169
1749314451074,-0.7218518257141113,-10.029909133911133,-0.19033902883529663
1749314451141,-0.8559271097183228,-9.369110107421875,0.5039794445037842
1749314451207,,-9.82879638671875,
1749314451208,-0.7170634269714355,-9.733028411865234,-0.15682020783424377
1749314451274,-0.39624038338661194,-9.785700798034668,0.1496376097202301
1749314451342,-0.707486629486084,-10.259753227233887,1.533486247062683
1749314451407,0.5949591398239136,-9.910199165344238,0.08259996026754379
1749314451478,,-9.349956512451172,
1749314451479,0.6572083830833435,-9.349956512451172,0.02992752194404602
1749314451543,-0.7266402244567871,-10.015543937683105,-0.7553706169128418
1749314451607,,-10.029909133911133,
1749314451608,-0.30047231912612915,-9.756970405578613,-1.0283095836639404
1749314451675,,-9.254188537597656,
1749314451676,-1.291671872138977,-9.345168113708496,0.6667851805686951
1749314451742,0.3076549172401428,-10.379463195800781,
1749314451743,0.9923965930938721,,1.0307037830352783
1749314451809,1.7106571197509766,-9.565434455871582,-0.7841010689735413
1749314451876,0.8104372620582581,-9.512762069702148,-0.017956512048840523
1749314451943,1.2749123573303223,-10.283695220947266,-0.02753331884741783
1749314452009,1.8399440050125122,-9.546280860900879,-2.3307554721832275
1749314452075,,-9.498396873474121,
1749314452076,0.729034423828125,,-1.1001356840133667
1749314452142,,-8.315661430358887,
1749314452143,1.6340426206588745,-8.262989044189453,2.007538080215454
1749314452209,2.7688941955566406,-9.584588050842285,-3.8343141078948975
1749314452275,,-9.3643217086792,
1749314452276,3.0561983585357666,-9.263765335083008,-1.6747441291809082
1749314452343,,-9.426570892333984,
1749314452344,2.3044190406799316,,-0.5542576909065247
1749314452409,2.342726469039917,-9.469666481018066,-1.698686122894287
1749314452475,,-9.081805229187012,
1749314452476,2.5294740200042725,-9.1632080078125,-2.627636432647705
1749314452543,,-9.694721221923828,
1749314452544,2.1272482872009277,,-1.9045875072479248
1749314452609,1.7585411071777344,-9.196727752685547,
1749314452610,,,-2.191891670227051
1749314452675,,-9.268553733825684,
1749314452676,1.4616601467132568,,-2.8862102031707764
1749314452743,0.9588778018951416,-9.34037971496582,
1749314452744,1.092953085899353,,-2.756923198699951
1749314452809,1.6867151260375977,-8.794501304626465,-2.1775264739990234
1749314452875,,-9.761758804321289,
1749314452876,1.294066071510315,-10.025120735168457,-1.8327614068984985
1749314452943,3.204638957977295,-9.790489196777344,
1749314452944,,,-2.0673930644989014
1749314453009,1.6292542219161987,-9.326014518737793,-0.9469067454338074
1749314453075,,-9.895833969116211,
1749314453076,1.2701239585876465,,-0.13287819921970367
1749314453144,1.3467384576797485,-9.819219589233398,-0.29568392038345337
1749314453208,,-9.651625633239746,
1749314453209,-0.2861070930957794,-10.202292442321777,1.5765818357467651
1749314453278,,-10.499173164367676,
1749314453279,0.2693476974964142,-10.43692398071289,-1.071405291557312
1749314453343,1.294066071510315,-9.718663215637207,
1749314453344,1.217451572418213,,0.7146692276000977
1749314453408,,-9.709086418151855,
1749314453409,0.48482584953308105,,1.8064252138137817
1749314453475,0.6428431272506714,-9.61331844329834,0.6572083830833435
1749314453543,-0.152031809091568,-10.04427433013916,1.1791443824768066
1749314453608,-0.48243165016174316,-9.6803560256958,
1749314453609,-0.3579331636428833,,1.404199242591858
1749314453676,-0.6165069341659546,-9.64683723449707,1.169567584991455
1749314453742,-1.40180504322052,-9.82879638671875,1.5191209316253662
1749314453809,-0.07062894850969315,-9.627683639526367,1.1216834783554077
1749314453877,,-10.192715644836426,
1749314453879,2.5294740200042725,,0.767341673374176
1749314453943,,-9.938929557800293,
1749314453944,4.358644008636475,,0.5279214978218079
1749314454009,3.6786909103393555,-9.608530044555664,-0.41539400815963745
1749314454076,0.8774749040603638,-10.752958297729492,-3.9396588802337646
1749314454143,0.2454056739807129,-8.27735424041748,-1.238999366760254
1749314454208,,-8.483255386352539,
1749314454209,1.5765818357467651,-8.770559310913086,-0.4776432514190674
1749314454276,,-9.665990829467773,
1749314454277,1.5478514432907104,,-1.3491326570510864
1749314454343,3.137601375579834,-8.784924507141113,-1.1623848676681519
1749314454409,1.9069817066192627,-10.417770385742188,-0.6979097723960876
1749314454475,,-10.307637214660645,
1749314454476,2.4193408489227295,,-6.429628849029541
1749314454542,0.7625532150268555,-10.216657638549805,-1.037886381149292
1749314454609,,-8.990825653076172,
1749314454610,2.5677812099456787,-9.110535621643066,1.2749123573303223
1749314454677,3.0849289894104004,-9.6803560256958,-2.316390037536621
1749314454743,0.6763619780540466,-9.48882007598877,
1749314454744,,,0.5231330990791321
1749314454808,-0.6021417379379272,-10.049062728881836,-0.19033902883529663
1749314454875,1.5095441341400146,-9.694721221923828,-0.1759738177061081
1749314454942,2.9269115924835205,-9.632472038269043,1.380257248878479
1749314455010,,-9.934141159057617,
1749314455011,1.8303672075271606,-9.824007987976074,-0.05147533491253853
1749314455076,1.5861586332321167,-9.46487808227539,1.3563152551651
1749314455143,1.5717934370040894,-9.675567626953125,0.005985504016280174
1749314455208,0.973242998123169,-9.780912399291992,1.0402805805206299
1749314455209,,,0.6859387755393982
1749314455276,0.365115761756897,-9.689932823181152,0.005985504016280174
1749314455344,0.6811503767967224,-9.776124000549316,0.8200140595436096
1749314455409,0.7003039717674255,-9.852738380432129,0.20709845423698425
1749314455475,0.547075092792511,-9.512762069702148,0.48961424827575684
1749314455542,1.1025298833847046,-9.661202430725098,
1749314455543,,,0.6955155730247498
1749314455609,0.8056488633155823,-9.699509620666504,0.25498247146606445
1749314455676,,-9.728240013122559,
1749314455677,0.585382342338562,-9.77133560180664,0.10654197633266449
1749314455743,0.7721300721168518,-9.756970405578613,0.08259996026754379
1749314455809,1.2749123573303223,-9.709086418151855,0.43694180250167847
1749314455875,,-9.598953247070312,
1749314455876,1.4760253429412842,,0.8774749040603638
1749314455942,1.1264718770980835,-9.675567626953125,0.5997475385665894
1749314456010,,-9.852738380432129,
1749314456011,0.7864952683448792,-9.536704063415527,-0.3148375153541565
1749314456076,0.6955155730247498,-9.752182006835938,1.0115501880645752
1749314456143,1.2413935661315918,-9.584588050842285,
1749314456144,,,0.16400282084941864
1749314456209,1.337161660194397,-9.55585765838623,0.8583213090896606
1749314456275,,-9.800065994262695,
1749314456276,1.0594342947006226,,0.6189011335372925
1749314456344,0.9397241473197937,-9.709086418151855,0.7242460250854492
1749314456409,0.6859387755393982,-9.843161582946777,
1749314456410,,,0.3794809579849243
1749314456477,1.116895079612732,-9.64683723449707,0.3411737382411957
1749314456541,,-9.661202430725098,
1749314456542,0.9062053561210632,-9.733028411865234,1.0115501880645752
1749314456608,,-9.665990829467773,
1749314456609,1.279700756072998,-9.618106842041016,0.7146692276000977
1749314456678,1.2509703636169434,-9.723451614379883,1.2318167686462402
1749314456743,0.9157821536064148,-9.804854393005371,0.8966285586357117
1749314456809,0.9684545993804932,-9.790489196777344,1.0642226934432983
1749314456876,,-9.507973670959473,
1749314456877,1.0881646871566772,,0.7864952683448792
1749314456941,1.1982979774475098,-9.752182006835938,0.9253589510917664
1749314457008,,-9.589376449584961,
1749314457009,1.260547161102295,-9.699509620666504,0.9349357485771179
1749314457077,1.0115501880645752,-9.618106842041016,0.9923965930938721
1749314457144,,-9.728240013122559,
1749314457145,0.9636662006378174,,0.8870517015457153
1749314457210,1.0594342947006226,-9.632472038269043,1.3754688501358032
1749314457275,,-9.742605209350586,
1749314457276,1.0785878896713257,-9.728240013122559,0.8487445116043091
1749314457341,1.1408370733261108,-9.747393608093262,
1749314457342,,,0.8248024582862854
1749314457412,1.136048674583435,-9.675567626953125,1.0977414846420288
1749314457476,,-9.77133560180664,
1749314457477,0.8583213090896606,-9.752182006835938,0.5901707410812378
1749314457542,0.8056488633155823,-9.685144424438477,1.0881646871566772
1749314457608,,-9.776124000549316,
1749314457609,1.092953085899353,,0.9971849918365479
1749314457677,0.8152256608009338,-9.742605209350586,0.5901707410812378
1749314457742,1.0881646871566772,-9.651625633239746,
1749314457743,1.049857497215271,,1.035492181777954
1749314457809,0.6476315855979919,-9.608530044555664,1.1839327812194824
1749314457876,0.8056488633155823,-9.551069259643555,1.2557587623596191
1749314457941,1.4185645580291748,-9.67077922821045,0.6380547285079956
1749314458007,,-9.77133560180664,
1749314458008,1.1073182821273804,-9.776124000549316,1.016338586807251
1749314458075,,-9.723451614379883,
1749314458076,1.0642226934432983,-9.67077922821045,0.690727174282074
1749314458142,,-9.756970405578613,
1749314458143,0.9588778018951416,,0.8248024582862854
1749314458209,,-9.742605209350586,
1749314458210,0.8343793153762817,,0.5614402890205383
1749314458276,,-9.598953247070312,
1749314458277,1.3706804513931274,,1.0546458959579468
1749314458341,,-9.67077922821045,
1749314458342,1.624465823173523,,0.8152256608009338
1749314458409,0.8391677141189575,-9.733028411865234,0.6236895322799683
1749314458476,0.7481880187988281,-9.685144424438477,1.0211269855499268
1749314458542,,-9.709086418151855,
1749314458543,1.1264718770980835,-9.67077922821045,0.4465186297893524
1749314458609,0.9636662006378174,-9.728240013122559,0.7433996200561523
1749314458677,1.4616601467132568,-9.594164848327637,0.829590916633606
1749314458741,,-9.67077922821045,
1749314458742,0.9493009448051453,,0.6476315855979919
1749314458808,,-9.819219589233398,
1749314458809,0.8822633028030396,-9.776124000549316,0.5327098965644836
1749314458879,,-9.713874816894531,
1749314458880,1.2270283699035645,,0.37469255924224854
1749314458942,1.313219666481018,-9.618106842041016,
1749314458943,,,0.6811503767967224
1749314459009,1.1552022695541382,-9.584588050842285,0.7242460250854492
1749314459075,,-9.651625633239746,
1749314459076,1.2461819648742676,-9.589376449584961,0.5518634915351868
1749314459142,1.236605167388916,-9.790489196777344,0.3076549172401428
1749314459208,1.1264718770980835,-9.733028411865234,0.5231330990791321
1749314459277,1.3084312677383423,-9.713874816894531,0.5279214978218079
1749314459342,1.0450690984725952,-9.632472038269043,0.6332663297653198
1749314459409,1.0211269855499268,-9.70429801940918,0.5279214978218079
1749314459476,1.4185645580291748,-9.689932823181152,0.585382342338562
1749314459541,,-9.723451614379883,
1749314459542,1.136048674583435,-9.756970405578613,0.5805938839912415
1749314459608,1.212663173675537,-9.685144424438477,0.39384618401527405
1749314459676,1.3180080652236938,-9.70429801940918,0.7050924301147461
1749314459741,,-9.709086418151855,
1749314459742,1.2844891548156738,,0.7721300721168518
1749314459812,1.193509578704834,-9.656414031982422,0.6955155730247498
1749314459876,1.217451572418213,-9.728240013122559,0.5135562419891357
1749314459942,,-9.699509620666504,
1749314459943,1.3323732614517212,,0.48482584953308105
1749314460009,1.2413935661315918,-9.665990829467773,0.7050924301147461
1749314460075,,-9.584588050842285,
1749314460076,1.2461819648742676,,0.6859387755393982
1749314460142,1.313219666481018,-9.713874816894531,0.6236895322799683
1749314460208,,-9.756970405578613,
1749314460209,1.2892776727676392,-9.776124000549316,0.7050924301147461
1749314460278,,-9.685144424438477,
1749314460280,1.092953085899353,,0.5901707410812378
1749314460343,1.1312602758407593,-9.685144424438477,0.6428431272506714
1749314460408,1.3754688501358032,-9.713874816894531,0.8152256608009338
1749314460476,1.2653355598449707,-9.608530044555664,0.8774749040603638
1749314460544,1.1839327812194824,-9.809642791748047,0.48961424827575684
1749314460609,1.260547161102295,-9.685144424438477,0.8200140595436096
1749314460679,1.1743559837341309,-9.632472038269043,0.6955155730247498
1749314460741,,-9.651625633239746,
1749314460742,1.4664485454559326,,0.6619967818260193
1749314460809,1.0833762884140015,-9.67077922821045,0.8056488633155823
1749314460877,1.1647791862487793,-9.747393608093262,0.5662286877632141
1749314460941,,-9.713874816894531,
1749314460942,1.3994108438491821,-9.651625633239746,0.6428431272506714
1749314461009,1.3419500589370728,-9.632472038269043,0.7721300721168518
1749314461075,,-9.661202430725098,
1749314461076,1.5047557353973389,,0.8343793153762817
1749314461141,1.1216834783554077,-9.70429801940918,0.7721300721168518
1749314461207,1.4185645580291748,-9.780912399291992,0.5901707410812378
1749314461276,1.3180080652236938,-9.632472038269043,0.7960720658302307
1749314461352,1.2844891548156738,-9.881468772888184,0.48482584953308105
1749314461407,1.1552022695541382,-9.67077922821045,
1749314461408,1.2653355598449707,,-0.017956512048840523
1749314461476,1.3419500589370728,-9.79527759552002,-0.03711012750864029
1749314461542,,-9.239823341369629,
1749314461543,2.3331496715545654,-8.957306861877441,-0.8798691034317017
1749314461609,2.721010208129883,-9.316437721252441,-2.1344308853149414
1749314461679,,-9.536704063415527,
1749314461680,2.45285964012146,-8.928576469421387,-1.8854337930679321
1749314461741,1.116895079612732,-8.037933349609375,-2.0386626720428467
1749314461809,-0.2908954918384552,-10.46086597442627,-2.2685060501098633
1749314461875,,-10.058639526367188,
1749314461876,3.58292293548584,-8.531139373779297,-3.2405519485473633
1749314461942,,-9.440936088562012,
1749314461943,2.448071241378784,-9.943717956542969,-1.5598224401474
1749314462009,-0.5925649404525757,-10.130465507507324,0.6428431272506714
1749314462076,,-9.440936088562012,
1749314462077,0.37469255924224854,-9.503185272216797,0.7242460250854492
1749314462142,-0.7026981711387634,-10.087369918823242,0.2693476974964142
1749314462209,-0.0035913025494664907,-9.761758804321289,0.8152256608009338
1749314462210,,,1.1743559837341309
1749314462275,,-9.421782493591309,
1749314462276,0.1496376097202301,,-0.39145198464393616
1749314462341,-0.5494692921638489,-9.55585765838623,1.744175910949707
1749314462409,,-9.785700798034668,
1749314462410,-1.4065934419631958,-9.699509620666504,0.8583213090896606
1749314462475,,-9.37389850616455,
1749314462476,0.1496376097202301,-9.575011253356934,1.4903905391693115
1749314462541,,-9.172784805297852,
1749314462542,-0.6404489278793335,-9.24940013885498,0.8631097078323364
1749314462607,-1.4113819599151611,-9.891045570373535,0.4082113802433014
1749314462674,-2.0817582607269287,-10.575787544250488,-0.02753331884741783
1749314462741,-1.1432312726974487,-11.28447151184082,-0.9660604000091553
1749314462807,,-11.351509094238281,
1749314462808,0.10175357013940811,,0.7194576263427734
1749314462874,10.119093894958496,-10.020332336425781,-1.8950105905532837
1749314462941,2.6827030181884766,-12.146384239196777,-0.2717418968677521
1749314463009,-1.478419542312622,-10.001178741455078,2.625242233276367
1749314463075,-0.43933600187301636,-9.167996406555176,-0.008379706181585789
1749314463141,,-9.177573204040527,
1749314463142,1.1264718770980835,-8.152854919433594,0.4944026470184326
1749314463208,2.9316999912261963,-6.582259178161621,-0.6739677786827087
1749314463276,2.5342624187469482,-6.500856399536133,-1.7896658182144165
1749314463343,0.7098808288574219,-11.43291187286377,-6.252457618713379
1749314463409,0.6763619780540466,-15.421651840209961,
1749314463410,,,-2.517503023147583
1749314463476,4.195838451385498,-2.9765913486480713,2.3283610343933105
1749314463543,-0.8942343592643738,-13.525444030761719,-1.655590534210205
1749314463544,,,-1.646013617515564
1749314463608,,-9.752182006835938,
1749314463609,-0.6596025824546814,,0.005985504016280174
1749314463675,,-10.446500778198242,
1749314463676,0.02992752194404602,,-1.5502456426620483
1749314463744,-0.1041477769613266,-10.058639526367188,-0.8176198601722717
1749314463812,-1.0905588865280151,-10.85830307006836,-0.5398924946784973
1749314463876,2.4815900325775146,-10.475231170654297,-1.8806453943252563
1749314463943,1.4712369441986084,-11.77288818359375,-1.1767501831054688
1749314463944,,,1.6627731323242188
1749314464008,-0.9277531504631042,-12.668319702148438,-2.139219284057617
1749314464075,2.3331496715545654,-8.449736595153809,0.1496376097202301
1749314464144,,-7.688380241394043,
1749314464145,0.3411737382411957,-8.219893455505371,-0.23343466222286224
1749314464209,0.9205705523490906,-8.483255386352539,0.6524199843406677
1749314464275,-1.3730746507644653,-8.545504570007324,-0.5446808934211731
1749314464342,-0.812831461429596,-9.110535621643066,0.5710170865058899
1749314464410,-1.722628116607666,-9.5223388671875,1.313219666481018
1749314464475,,-9.057863235473633,
1749314464476,-2.1727380752563477,,0.7960720658302307
1749314464543,-1.6316484212875366,-10.389039993286133,0.3842693865299225
1749314464608,-1.382651448249817,-9.73781681060791,0.6524199843406677
1749314464675,0.5997475385665894,-9.804854393005371,0.4991910457611084
1749314464676,,,1.3180080652236938
1749314464742,,-9.996390342712402,
1749314464743,-1.5071499347686768,,0.2932897210121155
1749314464809,-0.1951274424791336,-8.60775375366211,-0.3148375153541565
1749314464875,,-10.058639526367188,
1749314464876,-0.7841010689735413,-10.259753227233887,-2.7042508125305176
1749314464943,2.141613483428955,-7.8511857986450195,
1749314464944,,,-0.20470423996448517
1749314465008,4.99550199508667,-8.004414558410645,
1749314465009,2.8359320163726807,,0.9780313968658447
1749314465077,-0.5494692921638489,-8.535927772521973,-3.312378168106079
1749314465143,0.9349357485771179,-11.605294227600098,-6.501454830169678
1749314465209,-0.5877765417098999,-6.443395137786865,-4.590881824493408
1749314465275,2.5246856212615967,-9.057863235473633,
1749314465276,,,-6.57806921005249
1749314465344,1.8255788087844849,-7.357980251312256,-5.893327713012695
1749314465409,0.7960720658302307,-7.214328289031982,-6.075286865234375
1749314465475,,-7.784148216247559,
1749314465476,2.098517894744873,,-6.10401725769043
1749314465543,4.0330328941345215,-8.73225212097168,-4.581305027008057
1749314465610,2.5486276149749756,-6.548740386962891,-6.060921669006348
1749314465676,2.270900249481201,-6.625354766845703,-7.439981937408447
1749314465743,2.5725696086883545,-6.6397199630737305,-7.2005615234375
1749314465809,2.6874914169311523,-6.510433197021484,-7.181407928466797
1749314465875,2.409764051437378,-5.9070940017700195,-5.974730491638184
1749314465942,,-6.376357555389404,
1749314465943,2.3044190406799316,-6.591835975646973,-5.735310077667236
1749314466009,3.132812976837158,-7.243058681488037,-5.835866451263428
1749314466076,2.5917234420776367,-7.185597896575928,-6.300341606140137
1749314466143,1.523909330368042,-7.209539890289307,
1749314466144,,,-7.143100738525391
1749314466208,,-6.845621109008789,
1749314466209,1.7345991134643555,-6.816890716552734,-7.004237174987793
1749314466275,2.146401882171631,-7.041945934295654,
1749314466276,,,-6.530185222625732
1749314466344,,-7.008427143096924,
1749314466345,2.385822057723999,-6.898293495178223,-6.45357084274292
1749314466409,2.625242233276367,-6.950965881347656,-6.45357084274292
1749314466477,,-6.8360443115234375,
1749314466478,2.3810336589813232,,-6.745663166046143
1749314466543,2.649184226989746,-6.816890716552734,
1749314466544,3.0418331623077393,,-6.85100793838501
1749314466608,2.476801633834839,-6.8791399002075195,-6.803123950958252
1749314466675,2.3523032665252686,-6.4386067390441895,-6.946776390075684
1749314466743,2.1320366859436035,-6.47212553024292,-7.0138139724731445
1749314466808,,-6.390722751617432,
1749314466809,1.8782511949539185,-6.615777969360352,-7.176619529724121
1749314466876,2.495955228805542,-6.620566368103027,-7.3920979499816895
1749314466942,,-5.648520469665527,
1749314466943,2.1799206733703613,,-6.35301399230957
1749314467008,2.0266916751861572,-6.151302814483643,-7.090428352355957
1749314467076,1.8734627962112427,-6.213551998138428,-7.3202714920043945
1749314467144,1.9835960865020752,-6.740276336669922,-7.372944355010986
1749314467208,1.8112136125564575,-6.505644798278809,-6.587646007537842
1749314467276,1.4472949504852295,-6.5295867919921875,-7.1239471435546875
1749314467343,,-6.577470779418945,
1749314467344,2.050633668899536,,-6.592434406280518
1749314467409,1.7729063034057617,-6.582259178161621,-6.127959251403809
1749314467478,,-6.9461774826049805,
1749314467479,1.92134690284729,-7.018003940582275,-6.204573631286621
1749314467543,2.0889410972595215,-7.616554260253906,-6.496666431427002
1749314467608,0.9828197956085205,-7.563881874084473,-6.123170852661133
1749314467675,2.826355218887329,-8.382699012756348,-5.8215012550354
1749314467744,2.1942858695983887,-7.5016326904296875,-5.60602331161499
1749314467809,1.9979612827301025,-7.630919456481934,-5.591658115386963
1749314484824,2.2182278633117676,-8.253412246704102,-5.725733280181885
1749314484825,2.1942858695983887,-7.5782470703125,-5.7975592613220215
1749314484826,1.9740192890167236,-7.563881874084473,-5.87896203994751
1749314484827,1.9548656940460205,-7.563881874084473,
1749314484829,,-7.515997886657715,-5.87896203994751
1749314484830,1.9596540927886963,,
1749314484844,2.0027496814727783,-7.482479095458984,-5.859808444976807
1749314484914,,-7.511209487915039,
1749314484915,1.9069817066192627,-7.425017833709717,-6.094440460205078
1749314485662,1.9500772953033447,-7.539939880371094,
1749314485663,1.988384485244751,,-5.960365295410156
1749314485732,1.9405004978179932,-7.429806232452393,-5.874173641204834
1749314485798,,-7.48726749420166,
1749314485799,1.8926163911819458,-7.48726749420166,-6.0417680740356445
1749314489749,,-7.405864238739014,
1749314489750,1.8399440050125122,-7.468113422393799,-6.084863662719727
1749314489751,1.9165585041046143,-7.477690696716309,-6.017826080322266
1749314489822,,-7.4537482261657715,
1749314489823,1.9357120990753174,-7.5016326904296875,-5.950788497924805
1749314489886,,-7.425017833709717,
1749314489887,1.8399440050125122,,-5.9986724853515625
1749314497548,1.777694821357727,-7.472901821136475,-6.113594055175781
1749314497549,1.88782799243927,-7.425017833709717,-6.089652061462402
1749314497550,1.8926163911819458,-7.448959827423096,-5.950788497924805
1749314497585,1.9835960865020752,-7.496844291687012,-5.989095687866211
1749314497653,1.92134690284729,-7.434594631195068,-6.008249282836914
1749314515579,1.8495208024978638,-7.482479095458984,-6.238092422485352
1749314515580,1.8782511949539185,-7.401075839996338,-6.175843238830566
1749314515582,,-7.420229434967041,
1749314515583,1.8495208024978638,-7.367557048797607,-6.190208435058594
1749314515584,,-7.401075839996338,-5.9986724853515625
1749314515585,1.92134690284729,-7.554305076599121,
1749314515590,1.9931728839874268,-7.429806232452393,-6.060921669006348
1749314515658,2.165555477142334,-7.535151481628418,-5.9555768966674805
1749314519662,2.0649988651275635,-7.48726749420166,-5.898116111755371
1749314519675,1.844732403755188,-8.358757019042969,-5.438429355621338
1749314519744,1.677138328552246,-8.224681854248047,-4.835090160369873
1749314527558,,-8.373122215270996,
1749314527559,1.456871747970581,-8.282142639160156,
1749314527560,-2.029085874557495,,-4.768052577972412
1749314527582,,-1.0133458375930786,
1749314527583,-1.535880446434021,,-9.072827339172363
1749314527652,-2.8191723823547363,-2.5791537761688232,-8.87171459197998
1749314539475,,-3.153762102127075,
1749314539476,-0.3148375153541565,-4.331709384918213,
1749314539477,-3.2118215560913086,,-7.55011510848999
1749314539478,,,-6.57806921005249
1749314539535,-1.3922282457351685,-2.65097975730896,-10.609905242919922
1749314539577,-1.3251906633377075,-1.913565754890442,-8.349778175354004
1749314539644,-0.04668693244457245,-2.689286947250366,-10.111910820007324
1749314539709,,-3.752312660217285,
1749314539710,-1.8997989892959595,-3.819350242614746,-12.405555725097656
1749314539776,-2.8095955848693848,-1.2767080068588257,-9.671378135681152
1749314539844,-2.761711597442627,-0.35254621505737305,-9.987412452697754
1749314539910,,-0.7547720670700073,
1749314539911,-0.34835633635520935,-0.5680243372917175,-8.225279808044434
1749314539978,-0.23343466222286224,-0.26156654953956604,-6.736086368560791
1749314540045,-3.4320881366729736,-1.856104850769043,
1749314540046,,,-11.016919136047363
1749314540110,-1.7896658182144165,-2.234388828277588,-8.196549415588379
1749314540111,,,-9.091980934143066
1749314540166,-1.6172832250595093,-3.110666513442993,
1749314540167,,,-10.796652793884277
1749314540246,-2.6372132301330566,-3.642179250717163,-11.739968299865723
1749314540310,,-1.4730325937271118,
1749314540311,-1.9716250896453857,,-9.139864921569824
1749314540377,-2.6372132301330566,-0.4387374520301819,-8.26358699798584
1749314540445,,-0.7451952695846558,
1749314540446,-2.0673930644989014,,-9.182960510253906
1749314540510,,-1.3820528984069824,
1749314540511,-2.2589292526245117,,-10.36569595336914
1749314540577,-3.891774892807007,-0.9654618501663208,-9.982624053955078
1749314540644,-2.560598611831665,-1.7794904708862305,-9.273940086364746
1749314540645,,,-9.81024169921875
1749314540710,-2.78086519241333,-2.0715830326080322,-10.609905242919922
1749314540776,,-1.7938556671142578,
1749314540777,-2.522291421890259,,-8.981847763061523
1749314540845,-2.1535844802856445,-1.6310498714447021,-9.503783226013184
1749314540910,,-1.4873977899551392,
1749314540911,-2.49834942817688,,-10.169371604919434
1749314540977,-2.24935245513916,-0.8936358094215393,-8.933963775634766
1749314541045,-2.278082847595215,-1.8273744583129883,-9.26915168762207
1749314541110,-2.187103271484375,-1.2767080068588257,-9.791088104248047
1749314541177,-2.541445016860962,-1.7363947629928589,-8.890868186950684
1749314541245,-2.474407434463501,-1.4969745874404907,-10.001777648925781
1749314541310,-3.154360771179199,-1.2767080068588257,-8.89565658569336
1749314541377,-2.278082847595215,-1.0229226350784302,-8.613141059875488
1749314541447,,-0.7547720670700073,
1749314541448,-3.0585925579071045,-1.128267526626587,-9.168595314025879
1749314541511,-2.1966800689697266,-1.1905168294906616,-8.483853340148926
1749314541577,-2.05781626701355,-2.521692991256714,
1749314541578,-1.9381062984466553,,-9.254786491394043
1749314541645,,-3.268683910369873,
1749314541646,-1.9955670833587646,-3.2591071128845215,-9.642647743225098
1749314541710,,-2.765901565551758,
1749314541711,-2.0865468978881836,-2.694075345993042,-9.230844497680664
1749314541777,-1.679532527923584,-2.1577742099761963,-8.268375396728516
1749314541845,-1.679532527923584,-1.9470845460891724,-7.205349922180176
1749314541910,,-2.258330821990967,
1749314541911,-2.3355438709259033,,-9.671378135681152
1749314541977,-1.1049240827560425,-3.24953031539917,
1749314541978,,,-7.842207431793213
1749314542045,-0.04668693244457245,-4.269460201263428,
1749314542046,,,-8.847772598266602
1749314542110,-0.23343466222286224,-5.792172431945801,-8.953117370605469
1749314542176,,-6.055534839630127,
1749314542177,0.4321534037590027,-5.739500045776367,-9.082404136657715
1749314542245,,-4.6956281661987305,
1749314542246,-0.5829881429672241,-4.211999416351318,-7.82305383682251
1749314542310,,-4.547187805175781,
1749314542311,-1.4449007511138916,,-9.489418029785156
1749314542378,0.5279214978218079,-4.058770656585693,-7.267599105834961
1749314542446,,-4.025251388549805,
1749314542447,-0.8271966576576233,-4.015674591064453,-8.890868186950684
1749314542510,,-3.6804866790771484,
1749314542511,0.22625206410884857,-3.6326024532318115,-7.748833656311035
1749314542577,-0.4967968463897705,-4.671686172485352,-9.431957244873047
1749314542645,-1.071405291557312,-5.021239280700684,-8.80467700958252
1749314542711,,-4.441842555999756,
1749314542712,-0.3148375153541565,,-8.646659851074219
1749314542778,-0.9564836025238037,-4.633378982543945,-8.29710578918457
1749314542847,-0.2190694510936737,-4.432265758514404,-8.455122947692871
1749314542913,-1.215057373046875,-4.092289447784424,-9.853337287902832
1749314542978,,-3.2207999229431152,
1749314542979,-1.215057373046875,-2.6222493648529053,-7.818265438079834
1749314543045,-1.502361536026001,-1.8704700469970703,-8.191761016845703
1749314543111,-2.737769603729248,-0.44831427931785583,-7.492654323577881
1749314543179,-1.9812018871307373,-2.296638011932373,-8.53652572631836
1749314543247,,-2.674921751022339,
1749314543248,-1.6699557304382324,,-9.024943351745605
1749314543312,,-3.4171242713928223,
1749314543313,-1.5454572439193726,,-9.862914085388184
1749314543378,,-3.6804866790771484,
1749314543379,-0.3292027413845062,,-9.130288124084473
1749314543447,-1.655590534210205,-4.791396141052246,-7.665036678314209
1749314543512,,-9.512762069702148,
1749314543513,2.2852654457092285,,-9.412803649902344
1749314543578,,-8.923788070678711,
1749314543579,1.499967336654663,-6.151302814483643,
1749314543647,1.0833762884140015,-3.512892484664917,-5.993884086608887
1749314543711,,-1.544858694076538,
1749314543712,-1.171961784362793,,-3.7624878883361816
1749314543778,-1.746570110321045,-1.4395138025283813,
1749314543779,-1.3778630495071411,,-6.946776390075684
1749314543849,,-1.18094003200531,
1749314543850,-2.4887726306915283,,-9.29309368133545
1749314543912,-0.9660604000091553,-2.1769278049468994,-7.794323444366455
1749314543978,-6.10401725769043,-6.543951988220215,
1749314543979,,,-24.070106506347656
1749314544045,-2.756923198699951,-3.661332845687866,-9.690531730651855
1749314544112,,-3.934272050857544,
1749314544113,-2.321178436279297,-3.450643301010132,-7.995436668395996
1749314544179,-0.5303156971931458,-2.5695769786834717,-5.342660903930664
1749314544247,,-3.3740286827087402,
1749314544248,-0.5973533391952515,,-6.7935471534729
1749314544312,,-3.642179250717163,
1749314544313,-3.796006679534912,,-10.528501510620117
1749314544378,-2.6898856163024902,-2.3062148094177246,-8.435969352722168
1749314544449,,-3.5416228771209717,
1749314544450,-2.9915549755096436,,-10.954669952392578
1749314544512,,-3.90554141998291,
1749314544513,-1.7322049140930176,,-9.159018516540527
1749314544578,-1.3108254671096802,-3.153762102127075,-8.675390243530273
1749314544645,,-3.5895068645477295,
1749314544646,-2.1775264739990234,-3.4075474739074707,-9.9586820602417
1749314544711,,-3.3405098915100098,
1749314544712,-1.0091559886932373,-3.206434726715088,-8.043320655822754
1749314544781,-1.171961784362793,-2.6653449535369873,-8.455122947692871
1749314544846,-2.005143880844116,-2.449866771697998,-9.39365005493164
1749314544912,-1.5981296300888062,-2.919130325317383,-8.809465408325195
1749314544978,,-2.7994203567504883,
1749314544979,-1.382651448249817,-2.9287071228027344,-8.617929458618164
1749314545045,-2.1583728790283203,-3.646967649459839,-9.6618013381958
1749314545111,-1.8136078119277954,-2.5264813899993896,-8.186972618103027
1749314545182,,-3.6134488582611084,
1749314545183,-3.02986216545105,-2.8137855529785156,-9.647436141967773
1749314545245,,-3.3069911003112793,
1749314545246,-2.1057004928588867,-3.1298201084136963,-9.99220085144043
1749314545311,-1.9955670833587646,-2.7898435592651367,-8.091204643249512
1749314545379,-1.8997989892959595,-3.886387825012207,-9.657012939453125
1749314545446,-2.005143880844116,-2.943072557449341,-9.489418029785156
1749314545514,-2.93888258934021,-2.425924777984619,-9.743204116821289
1749314545580,-2.292448043823242,-2.301426410675049,
1749314545581,,,-8.641871452331543
1749314545643,,-2.344521999359131,
1749314545644,-2.694674015045166,-2.2918496131896973,-9.513360023498535
1749314545711,,-2.143409013748169,
1749314545712,-1.4401123523712158,-2.296638011932373,-7.909245491027832
1749314545778,,-2.6557681560516357,
1749314545779,-3.1974563598632812,,-9.90122127532959
1749314545844,,-2.5504233837127686,
1749314545845,-2.919728994369507,-2.6653449535369873,-9.575610160827637
1749314545910,-2.206256866455078,-2.100313425064087,-8.74721622467041
1749314545911,,,-9.374496459960938
1749314545980,,-2.2391772270202637,
1749314545981,-2.651578426361084,,-9.192537307739258
1749314546045,-2.2254104614257812,-2.6414029598236084,-9.05367374420166
1749314546111,-2.7090392112731934,-2.7084407806396484,-9.005789756774902
1749314546180,-3.22139835357666,-2.4642322063446045,-10.485405921936035
1749314546245,,-1.9949685335159302,
1749314546246,-2.0482394695281982,,-7.7655930519104
1749314546311,,-2.646191358566284,
1749314546312,,-2.521692991256714,
1749314546313,-2.713827610015869,,-8.972270965576172
1749314546382,-2.3786394596099854,-2.8329391479492188,-9.135076522827148
1749314546446,-2.3546974658966064,-2.847304344177246,-8.57004451751709
1749314546515,-2.6659436225891113,-3.3931822776794434,-10.035296440124512
1749314546579,,-2.761113166809082,
1749314546580,-2.120065689086914,-2.627037763595581,-8.842984199523926
1749314546645,-3.044227361679077,-3.0627825260162354,-10.111910820007324
1749314546713,-2.4408886432647705,-2.3349452018737793,-8.58919906616211
1749314546778,-2.4456770420074463,-2.6844985485076904,-9.580398559570312
1749314547351,-2.369062662124634,-2.344521999359131,-9.125499725341797
1749314547360,-1.8710685968399048,-2.536058187484741,-9.441534042358398
1749314547428,,-2.943072557449341,
1749314547429,-2.412158250808716,,-9.278728485107422
1749314547497,,-2.9287071228027344,
1749314547498,-2.0482394695281982,-3.048417329788208,-8.943540573120117
1749314547562,-1.8471266031265259,-2.670133352279663,-8.637083053588867
1749314547629,-2.4600422382354736,-2.895188331604004,-8.924386978149414
1749314547696,-2.1296424865722656,-3.1202433109283447,
1749314547697,-1.9333178997039795,,-9.551667213439941
1749314547763,-2.206256866455078,-3.067570924758911,-8.866926193237305
1749314547829,-1.9524714946746826,-3.0388405323028564,-8.287528991699219
1749314547896,-2.7521347999572754,-3.646967649459839,
1749314547897,,,-9.446322441101074
1749314547962,-2.7042508125305176,-3.7714662551879883,-9.906009674072266
1749314548030,-2.5318682193756104,-2.8185739517211914,-8.910021781921387
1749314548096,-2.5510218143463135,-3.1489737033843994,
1749314548097,-2.163161277770996,,-9.259574890136719
1749314548162,,-3.4075474739074707,
1749314548163,-2.0913352966308594,,-9.11113452911377
1749314548229,-2.6659436225891113,-3.1441853046417236,-9.187748908996582
1749314548296,-2.800018787384033,-3.0771477222442627,-9.388861656188965
1749314548362,-1.890222191810608,-2.8137855529785156,-8.699332237243652
1749314548429,-2.3259668350219727,-3.3644518852233887,-9.412803649902344
1749314548496,,-3.2351651191711426,
1749314548497,-2.1152772903442383,,-9.71926212310791
1749314548562,-1.6412252187728882,-2.272696018218994,-8.163030624389648
1749314548628,,-3.1729156970977783,
1749314548629,-2.254140853881836,-2.943072557449341,-9.71926212310791
1749314548696,,-2.631826162338257,
1749314548697,-2.211045265197754,,-8.80467700958252
1749314548762,-2.0482394695281982,-3.1298201084136963,
1749314548763,-2.364274263381958,,-8.991424560546875
1749314548829,-2.40736985206604,-3.450643301010132,-9.546878814697266
1749314548897,,-2.957437753677368,
1749314548898,-2.2445640563964844,,-9.230844497680664
1749314548962,,-2.4355015754699707,
1749314548963,-1.890222191810608,,-8.148665428161621
1749314549030,,-3.1920695304870605,
1749314549031,-1.9812018871307373,-3.072359323501587,-9.11113452911377
1749314549096,,-3.292625904083252,
1749314549097,-2.6803088188171387,,-9.99220085144043
1749314549162,-2.2637176513671875,-2.7994203567504883,-9.283516883850098
1749314549229,-2.340332269668579,-2.674921751022339,-8.857349395751953
1749314549296,,-2.7754783630371094,
1749314549297,-2.1057004928588867,,-8.503006935119629
1749314550002,-2.4025814533233643,-3.225588321685791,-10.02571964263916
1749314550070,-1.8710685968399048,-3.1202433109283447,-8.933963775634766
1749314550137,-2.8574798107147217,-3.005321741104126,-10.202890396118164
1749314550202,,-3.0867245197296143,
1749314550203,-2.053027868270874,-3.134608507156372,-9.805453300476074
1749314550269,-1.8710685968399048,-3.00053334236145,-8.546102523803711
1749314550337,-2.4887726306915283,-3.6996402740478516,-9.50857162475586
1749314550403,,-2.943072557449341,
1749314550404,-1.535880446434021,,-8.546102523803711
1749314550564,-2.584540843963623,-3.1729156970977783,-9.17817211151123
1749314550575,,-3.714005470275879,
1749314550576,-2.4169466495513916,,-9.920374870300293
1749314550643,-2.1775264739990234,-2.7754783630371094,-7.99064826965332
1749314550736,,-3.1058781147003174,
1749314550737,,-3.843292236328125,
1749314550738,-1.0761936902999878,-4.853645324707031,-7.597999095916748
1749314550777,,-4.604648590087891,
1749314550778,-0.788889467716217,-4.413112163543701,-8.306682586669922
1749314550843,-0.970848798751831,-5.638943672180176,-8.74721622467041
1749314550909,,-5.806537628173828,
1749314550910,-0.28131869435310364,,-8.560467720031738
1749314550977,-0.3818751573562622,-4.987720489501953,-7.3681559562683105
1749314551044,-0.3292027413845062,-4.930259704589844,-7.305906295776367
1749314551110,0.9253589510917664,-6.769006729125977,-8.488641738891602
1749314551178,1.2222399711608887,-7.132925510406494,-8.74721622467041
1749314551246,-0.15682020783424377,-6.314108371734619,-8.244433403015137
1749314551310,1.6101006269454956,-4.7818193435668945,-5.912481307983398
1749314551377,,-5.303755283355713,
1749314551379,-0.09935937076807022,-5.117007732391357,-7.444770336151123
1749314551442,0.6380547285079956,-5.926247596740723,-8.158242225646973
1749314551443,,,-8.80467700958252
1749314551512,-0.23343466222286224,-6.82167911529541,
1749314551513,,,-8.335412979125977
1749314551577,-0.5351040959358215,-6.084265232086182,-9.077615737915039
1749314551643,0.14484919607639313,-5.2893900871276855,-8.119935035705566
1749314551710,,-5.059546947479248,
1749314551711,-0.0802057534456253,-4.796184539794922,-8.886079788208008
1749314551781,,-3.9486372470855713,
1749314551782,-1.2868833541870117,-3.6326024532318115,-8.196549415588379
1749314551845,0.02513911761343479,-2.674921751022339,-7.219715118408203
1749314551910,-1.6268600225448608,-4.887164115905762,-8.225279808044434
1749314551979,-0.812831461429596,-5.672462463378906,-8.914810180664062
1749314552045,-0.7841010689735413,-5.380369663238525,-8.775946617126465
1749314552110,-1.071405291557312,-5.140949726104736,
1749314552111,-0.812831461429596,,-9.297882080078125
1749314552176,-0.32441434264183044,-4.355651378631592,-8.201337814331055
1749314552247,-0.7170634269714355,-4.96856689453125,-8.464699745178223
1749314552313,-0.8463503122329712,-5.514444828033447,-9.575610160827637
1749314552377,,-3.426701068878174,
1749314552378,0.2693476974964142,-2.564788579940796,-8.723274230957031
1749314552445,0.9349357485771179,-2.5073277950286865,-7.703343868255615
1749314552446,,,-8.220491409301758
1749314552512,-1.1767501831054688,-3.685275077819824,-9.50857162475586
1749314552513,,,-9.50857162475586
1749314552577,,-4.226364612579346,
1749314552578,1.2892776727676392,-4.2550950050354,-8.603564262390137
1749314552645,0.29807811975479126,-4.451419353485107,-9.369708061218262
1749314552712,-0.2621650993824005,-3.469796895980835,-9.044096946716309
1749314552777,0.4321534037590027,-3.5703532695770264,-9.580398559570312
1749314552844,,-3.685275077819824,
1749314552845,0.5710170865058899,,-8.991424560546875
1749314552913,0.07302315533161163,-2.9957449436187744,-8.541314125061035
1749314552977,0.4129997789859772,-3.2207999229431152,-9.048885345458984
1749314553047,-0.243011474609375,-3.6326024532318115,-10.245985984802246
1749314553111,1.1791443824768066,-3.7044286727905273,-8.74721622467041
1749314553179,-0.03232172131538391,-3.737947463989258,-9.77672290802002
1749314553245,,-3.3500866889953613,
1749314553246,1.2270283699035645,,-8.062474250793457
1749314553312,1.092953085899353,-4.662109375,-9.11113452911377
1749314553378,,-4.547187805175781,
1749314553379,1.8255788087844849,,-8.186972618103027
1749314553445,,-4.944624900817871,
1749314553446,1.7920600175857544,,-8.522160530090332
1749314553512,,-4.393958568572998,
1749314553513,1.6053122282028198,-4.149750232696533,
1749314553514,,,-8.876502990722656
1749314553515,,,-8.732851028442383
1749314553578,0.5997475385665894,-3.5464112758636475,
1749314553579,,,-8.684967041015625
1749314553644,0.3555389642715454,-2.737171173095703,-8.105569839477539
1749314553712,-1.1097124814987183,-2.80899715423584,-9.36013126373291
1749314553778,-0.9181763529777527,-2.694075345993042,-9.791088104248047
1749314553844,-1.942894697189331,-2.100313425064087,-11.208455085754395
1749314553911,,-1.6023194789886475,
1749314553912,-1.3012486696243286,-1.7411831617355347,-10.040084838867188
1749314553978,-1.6699557304382324,-2.9526493549346924,-10.590751647949219
1749314554049,-0.3627215623855591,-1.9231425523757935,-8.58919906616211
1749314554112,0.06344634294509888,-2.492962598800659,
1749314554113,0.14006079733371735,,-9.182960510253906
1749314554177,,-1.9470845460891724,
1749314554178,-0.13766659796237946,,-7.3681559562683105
1749314554244,,-2.1290438175201416,
1749314554245,0.8056488633155823,-2.0859482288360596,-8.143877029418945
1749314554311,,-2.449866771697998,
1749314554312,0.9493009448051453,-3.2591071128845215,-6.645106792449951
1749314554378,0.25498247146606445,-5.54317569732666,-7.305906295776367
1749314554445,,-6.543951988220215,
1749314554446,-3.178302764892578,-6.9940619468688965,-7.564480304718018
1749314554513,,-11.030685424804688,
1749314554514,0.5183446407318115,-9.484031677246094,-9.005789756774902
1749314554578,-5.275623321533203,-8.851962089538574,-9.345766067504883
1749314554645,,-5.729923248291016,
1749314554646,0.16400282084941864,-5.734711647033691,-5.084087371826172
1749314554712,-1.7896658182144165,-8.286931037902832,-5.692214488983154
1749314554777,,-6.965331077575684,
1749314554778,-2.120065689086914,,-6.860584735870361
1749314554845,,-7.3005194664001465,
1749314554846,-0.1280897855758667,-6.687603950500488,-4.988319396972656
1749314554911,-2.1966800689697266,-8.928576469421387,
1749314554912,-1.8136078119277954,,-6.094440460205078
1749314554977,0.3363853394985199,-6.376357555389404,-6.688202381134033
1749314555045,,-7.994838237762451,
1749314555046,-0.34356793761253357,,-6.31949520111084
1749314555112,-0.013168109580874443,-7.951742172241211,-5.912481307983398
1749314555181,-1.3251906633377075,-7.3005194664001465,-6.922834396362305
1749314555246,,-7.099406719207764,
1749314555247,,-7.04673433303833,
1749314555249,-0.6212953329086304,,-6.027402877807617
1749314555312,,-7.70274543762207,
1749314555313,-1.1432312726974487,,-6.501454830169678
1749314555378,-1.1623848676681519,-7.252635478973389,-6.6355299949646
1749314555444,,-7.247847080230713,
1749314555445,-0.7218518257141113,,-5.926846504211426
1749314555512,-0.3818751573562622,-7.683591842651367,-6.233304023742676
1749314555578,-0.7745242714881897,-7.482479095458984,-6.520608425140381
1749314555645,,-7.338826656341553,
1749314555646,-0.16160862147808075,-7.35319185256958,-6.290764808654785
1749314555712,,-8.052298545837402,
1749314555713,-0.788889467716217,,-6.214150428771973
1749314555778,-1.4544775485992432,-7.779359817504883,
1749314555779,-1.890222191810608,,-6.692990779876709
1749314555845,,-7.5016326904296875,
1749314555846,-0.6979097723960876,-7.008427143096924,-7.042544364929199
1749314555912,,-6.73069953918457,
1749314555913,1.1264718770980835,,-6.271611213684082
1749314555978,-0.3579331636428833,-8.952518463134766,-5.361814498901367
1749314556045,-0.3866635859012604,-7.0132155418396,
1749314556046,,,-6.467936038970947
1749314556114,-1.6747441291809082,-7.563881874084473,-6.285976409912109
1749314556178,,-6.807313919067383,
1749314556179,-0.243011474609375,-7.204751491546631,-6.175843238830566
1749314556245,-0.8655039072036743,-8.286931037902832,-6.233304023742676
1749314556312,,-7.295731067657471,
1749314556313,-1.138442873954773,-7.4537482261657715,-5.907692909240723
1749314556378,-1.2102689743041992,-7.4106526374816895,-5.8215012550354
1749314556444,,-7.6979570388793945,
1749314556445,-0.9469067454338074,-7.788936614990234,-6.204573631286621
1749314556515,-0.889445960521698,-7.726687431335449,-6.209362030029297
1749314556577,-0.5734112858772278,-7.587823867797852,-6.3482255935668945
1749314556646,-1.0905588865280151,-7.405864238739014,-6.036979675292969
1749314556711,-1.3299790620803833,-7.875127792358398,-6.04655647277832
1749314556778,-1.1049240827560425,-8.219893455505371,-6.10401725769043
1749314556844,,-7.247847080230713,
1749314556845,-0.645237386226654,,-6.056133270263672
1749314556912,,-7.846397399902344,
1749314556913,-1.1815385818481445,-8.090605735778809,-6.333860397338867
1749314556978,-1.1192892789840698,-7.338826656341553,
1749314556979,,,-6.434417247772217
1749314557045,,-8.909422874450684,
1749314557046,-1.5310919284820557,-7.415441036224365,-6.295553207397461
1749314557115,0.6859387755393982,-5.394734859466553,-6.4200520515441895
1749314557178,-0.6596025824546814,-7.405864238739014,-6.989871978759766
1749314557244,,-6.6397199630737305,
1749314557245,-0.3579331636428833,,-6.745663166046143
1749314557313,,-6.5726823806762695,
1749314557314,-0.7601590156555176,,-6.721721172332764
1749314557381,-0.6883329749107361,-7.425017833709717,-6.242880821228027
1749314557445,,-6.615777969360352,
1749314557446,-0.5973533391952515,-6.553528785705566,-7.468712329864502
1749314557511,,-7.166444301605225,
1749314557512,-0.5638344883918762,-7.381922245025635,-6.45357084274292
1749314557578,-1.0043675899505615,-6.984484672546387,-6.252457618713379
1749314557644,,-6.898293495178223,
1749314557645,-0.606930136680603,-7.267000675201416,-6.716932773590088
1749314557714,,-6.979696273803711,
1749314557715,-0.41539400815963745,-6.457760334014893,-7.042544364929199
1749314557778,-0.39145198464393616,-6.567893981933594,-6.410475254058838
1749314557845,0.10175357013940811,-6.591835975646973,-7.597999095916748
1749314557912,-0.1472434103488922,-7.463325023651123,-6.764816761016846
1749314557979,-0.2908954918384552,-6.888716697692871,
1749314557980,-0.2717418968677521,,-6.482301235198975
1749314558044,,-6.701969146728516,
1749314558045,-0.9229647517204285,-6.701969146728516,-6.6163763999938965
1749314558112,0.5183446407318115,-6.7929487228393555,
1749314558113,0.02513911761343479,,-6.716932773590088
1749314558181,-0.7457938194274902,-7.334038257598877,-6.5493388175964355
1749314558245,-1.013944387435913,-7.999626636505127,-6.664260387420654
1749314558312,,-7.108983516693115,
1749314558313,-0.8080430626869202,-6.869563102722168,-6.35301399230957
1749314558378,-0.5781996846199036,-6.802525520324707,-5.936423301696777
1749314558444,,-8.071452140808105,
1749314558445,-1.4449007511138916,-8.353968620300293,-7.095216751098633
1749314558512,-0.017956512048840523,-7.195174694061279,-6.290764808654785
1749314558581,-1.3443442583084106,-7.937376976013184,-6.731297969818115
1749314558645,,-7.199963092803955,
1749314558646,-0.5973533391952515,,-6.084863662719727
1749314558714,,-7.630919456481934,
1749314558715,-0.48722004890441895,-7.563881874084473,-6.343437194824219
1749314558777,-0.8990227580070496,-7.381922245025635,-6.228515625
1749314558778,,,-6.458359241485596
1749314558844,,-7.305307865142822,
1749314558845,-0.8702923059463501,,-6.300341606140137
1749314558911,,-7.812878608703613,
1749314558912,-0.8990227580070496,,-6.376956462860107
1749314558977,,-7.4106526374816895,
1749314558978,-0.5734112858772278,-7.750629425048828,-6.3961100578308105
1749314559045,-0.93254154920578,-7.616554260253906,-6.185420036315918
1749314559113,-0.9564836025238037,-7.434594631195068,-6.281188011169434
1749314559178,-0.7697358727455139,-7.367557048797607,-6.429628849029541
1749314559245,-0.7457938194274902,-7.496844291687012,
1749314559246,,,-6.10401725769043
1749314559312,-0.7122750282287598,-7.520786285400391,-6.333860397338867
1749314559378,-0.6500257849693298,-7.420229434967041,-6.333860397338867
1749314559445,-0.9469067454338074,-7.511209487915039,-6.329071998596191
1749314559514,,-7.506421089172363,
1749314559515,-0.7553706169128418,-7.539939880371094,-6.242880821228027
1749314559577,-0.6739677786827087,-7.563881874084473,-6.290764808654785
1749314559646,-0.7601590156555176,-7.458536624908447,-6.190208435058594
1749314559711,-0.7936778664588928,-7.4106526374816895,
1749314559712,,,-6.290764808654785
1749314559778,-0.6596025824546814,-7.472901821136475,-6.238092422485352
1749314559847,,-7.44417142868042,
1749314559848,-0.7410054206848145,,-6.257246017456055
1749314559912,,-7.520786285400391,
1749314559913,-0.750582218170166,-7.468113422393799,-6.372167587280273
1749314559978,-0.8032546639442444,-7.511209487915039,-6.329071998596191
1749314560044,,-7.511209487915039,
1749314560045,-0.6787561774253845,-7.472901821136475,-6.333860397338867
1749314560112,-0.7362170219421387,-7.515997886657715,-6.190208435058594
1749314560180,-0.788889467716217,-7.539939880371094,-6.180631637573242
1749314560181,,,-6.300341606140137
1749314560243,,-7.463325023651123,
1749314560244,-0.669179379940033,-7.535151481628418,-6.171054840087891
1749314560311,,-7.415441036224365,
1749314560312,-0.7841010689735413,,-6.247669219970703
1749314560381,,-7.482479095458984,
1749314560382,-0.7314286231994629,,-6.180631637573242
1749314560445,-0.7457938194274902,-7.468113422393799,
1749314560446,-0.6787561774253845,,-6.285976409912109
1749314560515,-0.7362170219421387,-7.587823867797852,-6.333860397338867
1749314560577,,-7.549516677856445,
1749314560578,-0.7649474143981934,-7.472901821136475,-6.276399612426758
1749314560646,-0.7601590156555176,-7.592612266540527,
1749314560647,-0.7841010689735413,,-6.314706802368164
1749314560713,,-7.458536624908447,
1749314560714,-0.6596025824546814,-7.587823867797852,-6.1088056564331055
1749314560778,-0.7170634269714355,-7.511209487915039,-6.142324447631836
1749314560845,,-7.48726749420166,
1749314560846,-0.6500257849693298,-7.563881874084473,-6.1949968338012695
1749314560912,-0.7170634269714355,-7.496844291687012,-6.376956462860107
1749314560979,-0.7697358727455139,-7.492055892944336,-6.3961100578308105
1749314561048,-0.6212953329086304,-7.602189064025879,-6.252457618713379
1749314561110,,-7.506421089172363,
1749314561111,-0.5303156971931458,,-6.185420036315918
1749314561177,,-7.525574684143066,
1749314561178,-0.5877765417098999,,-6.238092422485352
1749314561245,-0.5590460896492004,-7.5447282791137695,-6.209362030029297
1749314561312,,-7.458536624908447,
1749314561313,-0.52552729845047,-7.525574684143066,-6.223727226257324
1749314561378,-0.5638344883918762,-7.468113422393799,
1749314561379,-0.5494692921638489,,-6.1949968338012695
1749314561445,-0.5973533391952515,-7.405864238739014,-6.266822814941406
1749314561512,,-7.535151481628418,
1749314561513,-0.5207388401031494,-7.448959827423096,-6.362590789794922
1749314561577,-0.5877765417098999,-7.525574684143066,
1749314561578,,,-6.257246017456055
1749314561644,,-7.482479095458984,
1749314561645,-0.606930136680603,,-6.252457618713379
1749314561713,-0.5351040959358215,-7.492055892944336,
1749314561714,,,-6.266822814941406
1749314561777,,-7.48726749420166,
1749314561778,-0.5973533391952515,,-6.271611213684082
1749314561845,-0.5063736438751221,-7.506421089172363,-6.257246017456055
1749314561911,,-7.535151481628418,
1749314561912,-0.5638344883918762,-7.515997886657715,-6.252457618713379
1749314561978,-0.5351040959358215,-7.539939880371094,-6.214150428771973
1749314562044,-0.5494692921638489,-7.559093475341797,-6.2620344161987305
1749314562111,-0.4920084476470947,-7.448959827423096,-6.214150428771973
1749314562177,-0.6117185354232788,-7.468113422393799,-6.228515625
1749314562244,-0.5207388401031494,-7.463325023651123,
1749314562245,-0.4728548228740692,,-6.276399612426758
1749314562310,,-7.492055892944336,
1749314562311,-0.7314286231994629,-7.415441036224365,-6.343437194824219
1749314562378,-0.5159504413604736,-7.573458671569824,
1749314562379,,,-6.257246017456055
1749314562445,-0.32441434264183044,-7.559093475341797,-6.190208435058594
1749314562513,,-7.530363082885742,
1749314562514,-0.5015852451324463,,-6.290764808654785
1749314562581,-0.5781996846199036,-7.429806232452393,-6.276399612426758
1749314562645,,-7.4106526374816895,
1749314562646,-0.6021417379379272,,-6.276399612426758
1749314562711,,-7.458536624908447,
1749314562712,-0.6165069341659546,,-6.343437194824219
1749314562778,,-7.554305076599121,
1749314562779,-0.5781996846199036,,-6.276399612426758
1749314562844,,-7.568670272827148,
1749314562845,-0.5303156971931458,,-6.271611213684082
1749314562912,,-7.535151481628418,
1749314562913,-0.6165069341659546,-7.563881874084473,-6.266822814941406
1749314562978,,-7.429806232452393,
1749314562979,-0.5111620426177979,-7.587823867797852,-6.175843238830566
1749314563045,,-7.44417142868042,
1749314563046,-0.45848962664604187,,-6.185420036315918
1749314563112,-0.6117185354232788,-7.468113422393799,-6.2620344161987305
1749314563178,,-7.525574684143066,
1749314563179,-0.606930136680603,-7.425017833709717,-6.314706802368164
1749314563245,-0.6308721303939819,-7.506421089172363,-6.362590789794922
1749314563312,-0.5159504413604736,-7.525574684143066,-6.290764808654785
1749314563378,-0.5398924946784973,-7.5447282791137695,-6.209362030029297
1749314563444,-0.4920084476470947,-7.468113422393799,
1749314563445,,,-6.233304023742676
1749314563513,-0.5781996846199036,-7.420229434967041,-6.309918403625488
1749314563580,,-7.472901821136475,
1749314563582,-0.5734112858772278,,-6.309918403625488
1749314563645,-0.568622887134552,-7.439383029937744,-6.314706802368164
1749314563712,-0.606930136680603,-7.554305076599121,-6.376956462860107
1749314563777,,-7.535151481628418,
1749314563778,-0.5398924946784973,,-6.209362030029297
1749314563843,,-7.549516677856445,
1749314563844,-0.5111620426177979,,-6.271611213684082
1749314563913,-0.5494692921638489,-7.425017833709717,-6.223727226257324
1749314563979,-0.5877765417098999,-7.448959827423096,-6.199785232543945
1749314564044,,-7.429806232452393,
1749314564045,-0.568622887134552,-7.515997886657715,-6.233304023742676
1749314564111,,-7.482479095458984,
1749314564112,-0.5159504413604736,,-6.31949520111084
1749314564178,,-7.535151481628418,
1749314564179,-0.5159504413604736,,-6.329071998596191
1749314564245,,-7.539939880371094,
1749314564246,-0.5015852451324463,-7.48726749420166,-6.3482255935668945
1749314564314,-0.41539400815963745,-7.48726749420166,
1749314564315,,,-6.1949968338012695
1749314564379,-0.6021417379379272,-7.4537482261657715,-6.247669219970703
1749314564444,,-7.4106526374816895,
1749314564445,-0.6165069341659546,-7.525574684143066,-6.252457618713379
1749314564511,-0.5063736438751221,-7.4537482261657715,-6.329071998596191
1749314564578,,-7.597400665283203,
1749314564579,-0.43933600187301636,,-6.223727226257324
1749314564647,,-7.563881874084473,
1749314564648,-0.48722004890441895,-7.482479095458984,-6.314706802368164
1749314564711,,-7.468113422393799,
1749314564712,-0.46327802538871765,-7.539939880371094,-6.252457618713379
1749314564778,-0.48243165016174316,-7.3867106437683105,
1749314564779,,,-6.257246017456055
1749314564844,,-7.477690696716309,
1749314564845,-0.5111620426177979,-7.5016326904296875,-6.300341606140137
1749314564914,-0.5303156971931458,-7.420229434967041,-6.372167587280273
1749314564978,-0.42018240690231323,-7.525574684143066,
1749314564979,-0.4010287821292877,,-6.3482255935668945
1749314565045,,-7.530363082885742,
1749314565046,-0.48722004890441895,,-6.3482255935668945
1749314565111,,-7.448959827423096,
1749314565112,-0.42018240690231323,,-6.271611213684082
1749314565178,-0.46327802538871765,-7.391499042510986,-6.271611213684082
1749314565244,,-7.429806232452393,
1749314565245,-0.5303156971931458,,-6.242880821228027
1749314565312,-0.3387795388698578,-7.530363082885742,-6.314706802368164
1749314565378,,-7.458536624908447,
1749314565379,-0.1759738177061081,,-6.324283599853516
1749314565445,-0.4728548228740692,-7.468113422393799,-6.343437194824219
1749314565511,-0.5159504413604736,-7.367557048797607,
1749314565512,,,-6.333860397338867
1749314565578,-0.4537012279033661,-7.367557048797607,-6.31949520111084
1749314565579,,,-6.400898456573486
1749314565648,,-7.48726749420166,
1749314565649,-0.3148375153541565,-7.525574684143066,-6.228515625
1749314565711,,-7.482479095458984,
1749314565712,-0.25258827209472656,,-6.333860397338867
1749314565778,,-7.563881874084473,
1749314565779,-0.5063736438751221,-7.4537482261657715,-6.415263652801514
1749314565844,,-7.5016326904296875,
1749314565845,-0.48243165016174316,,-6.362590789794922
1749314565911,-0.2669534981250763,-7.448959827423096,-6.285976409912109
1749314565978,-0.39145198464393616,-7.434594631195068,-6.276399612426758
1749314566045,,-7.44417142868042,
1749314566046,-0.4345476031303406,,-6.233304023742676
1749314566112,,-7.496844291687012,
1749314566113,-0.45848962664604187,,-6.400898456573486
1749314566179,-0.4106055796146393,-7.463325023651123,-6.381744861602783
1749314566245,,-7.468113422393799,
1749314566246,-0.3148375153541565,-7.434594631195068,-6.329071998596191
1749314566311,-0.3866635859012604,-7.477690696716309,-6.309918403625488
1749314566378,-0.36750996112823486,-7.377133846282959,-6.295553207397461
1749314566445,,-7.4106526374816895,
1749314566446,-0.45848962664604187,,-6.333860397338867
1749314566512,-0.48722004890441895,-7.448959827423096,-6.372167587280273
1749314566579,-0.48722004890441895,-7.44417142868042,-6.35301399230957
1749314566645,-0.3531447649002075,-7.429806232452393,-6.3482255935668945
1749314566711,-0.3148375153541565,-7.506421089172363,-6.132747650146484
1749314566778,-0.4297592043876648,-7.434594631195068,-6.314706802368164
1749314566845,-0.5398924946784973,-7.348403453826904,
1749314566846,,,-6.338648796081543
1749314566912,-0.5303156971931458,-7.468113422393799,-6.439205646514893
1749314566979,-0.3627215623855591,-7.458536624908447,-6.372167587280273
1749314567044,-0.3627215623855591,-7.535151481628418,-6.429628849029541
1749314567110,,-7.482479095458984,
1749314567111,-0.5781996846199036,,-6.266822814941406
1749314567179,-0.4776432514190674,-7.420229434967041,-6.3961100578308105
1749314567244,,-7.381922245025635,
1749314567245,-0.44412440061569214,-7.367557048797607,-6.214150428771973
1749314567312,-0.44412440061569214,-7.48726749420166,-6.362590789794922
1749314567379,-0.4776432514190674,-7.425017833709717,-6.3961100578308105
1749314567444,-0.669179379940033,-7.439383029937744,-6.424840450286865
1749314567513,-0.4297592043876648,-7.4537482261657715,-6.372167587280273
1749314567577,-0.4776432514190674,-7.405864238739014,-6.309918403625488
1749314567643,,-7.434594631195068,
1749314567644,-0.3387795388698578,,-6.372167587280273
1749314567710,,-7.630919456481934,
1749314567711,-0.2908954918384552,-7.525574684143066,-6.252457618713379
1749314567777,-0.4489128291606903,-7.496844291687012,-6.333860397338867
1749314567844,-0.7745242714881897,-7.362768650054932,-6.324283599853516
1749314567910,-0.6308721303939819,-7.448959827423096,-6.343437194824219
1749314567979,-0.2190694510936737,-7.496844291687012,-6.156689643859863
1749314568045,-0.4537012279033661,-7.4537482261657715,
1749314568046,,,-6.362590789794922
1749314568111,-0.6883329749107361,-7.271789073944092,-6.3051300048828125
1749314568178,-0.6021417379379272,-7.434594631195068,-6.692990779876709
1749314568246,-0.34835633635520935,-7.405864238739014,-6.309918403625488
1749314568311,-0.3196259140968323,-7.463325023651123,-6.477512836456299
1749314568378,,-7.420229434967041,
1749314568379,-0.3196259140968323,-7.405864238739014,-6.314706802368164
1749314568446,-0.3148375153541565,-7.396287441253662,-6.415263652801514
1749314568511,-0.20470423996448517,-7.48726749420166,
1749314568512,,,-6.400898456573486
1749314568577,,-7.44417142868042,
1749314568578,-0.29568392038345337,-7.4106526374816895,-6.381744861602783
1749314568645,-0.6356605291366577,-7.420229434967041,
1749314568646,,,-6.4200520515441895
1749314568713,-0.6165069341659546,-7.367557048797607,-6.611588001251221
1749314568778,,-7.530363082885742,
1749314568780,-0.02274491637945175,,-6.132747650146484
1749314568844,,-7.420229434967041,
1749314568845,-0.20470423996448517,-7.48726749420166,-6.285976409912109
1749314568911,-0.6308721303939819,-7.219116687774658,-6.391321659088135
1749314568984,-0.5494692921638489,-7.22869348526001,-6.410475254058838
1749314569045,-0.24779987335205078,-7.439383029937744,-6.534973621368408
1749314569110,,-7.515997886657715,
1749314569111,-0.152031809091568,-7.448959827423096,-6.424840450286865
1749314569178,-0.3770867586135864,-7.401075839996338,-6.127959251403809
1749314569248,,-7.492055892944336,
1749314569249,-0.48243165016174316,-7.506421089172363,-6.534973621368408
1749314569311,,-7.44417142868042,
1749314569312,-0.4106055796146393,-7.4106526374816895,-6.530185222625732
1749314569378,,-7.357980251312256,
1749314569379,-0.568622887134552,-7.420229434967041,-6.233304023742676
1749314569445,,-7.3867106437683105,
1749314569446,-0.3292027413845062,,-6.5062432289123535
1749314569513,,-7.434594631195068,
1749314569514,-0.44412440061569214,,-6.7025675773620605
1749314569581,0.020350715145468712,-7.530363082885742,-6.223727226257324
1749314569646,-0.3770867586135864,-7.420229434967041,-6.376956462860107
1749314569714,-0.6643909811973572,-7.2334818840026855,
1749314569715,,,-6.515820026397705
1749314569778,-0.5781996846199036,-7.381922245025635,-6.424840450286865
1749314569845,-0.4297592043876648,-7.425017833709717,-6.434417247772217
1749314569911,-0.7457938194274902,-7.290942668914795,-6.640318393707275
1749314569977,,-7.180809497833252,
1749314569978,-0.7314286231994629,-7.223905086517334,-6.511031627655029
1749314570046,-0.5303156971931458,-7.4537482261657715,-6.281188011169434
1749314570111,,-7.525574684143066,
1749314570112,-0.07062894850969315,,-6.1088056564331055
1749314570178,,-7.329249858856201,
1749314570179,-0.2621650993824005,-7.530363082885742,-6.563704013824463
1749314570246,-1.1671733856201172,-7.334038257598877,-6.54455041885376
1749314570311,-0.669179379940033,-7.027580738067627,-6.482301235198975
1749314570378,,-7.31967306137085,
1749314570379,-0.6212953329086304,-7.2574238777160645,-6.587646007537842
1749314570447,,-7.305307865142822,
1749314570448,,-7.334038257598877,
1749314570450,-0.25258827209472656,,-6.381744861602783
1749314570511,,-7.415441036224365,
1749314570512,-0.6883329749107361,,-6.520608425140381
1749314570578,,-7.118560314178467,
1749314570579,-0.6165069341659546,-7.295731067657471,-6.640318393707275
1749314570645,-0.7649474143981934,-7.003638744354248,-6.57806921005249
1749314570712,-1.013944387435913,-7.324461460113525,-6.625953197479248
1749314570781,-0.6308721303939819,-7.199963092803955,-6.496666431427002
1749314570782,,,-6.477512836456299
1749314570846,-0.6356605291366577,-7.334038257598877,-6.3961100578308105
1749314570914,-0.6596025824546814,-7.243058681488037,-6.5062432289123535
1749314570977,,-7.128137111663818,
1749314570978,-0.6021417379379272,-7.314884662628174,-6.707355976104736
1749314571045,-0.889445960521698,-7.180809497833252,-7.147889137268066
1749314571110,,-8.229470252990723,
1749314571111,-0.4967968463897705,-7.927800178527832,-6.415263652801514
1749314571179,1.2270283699035645,-5.131372928619385,-7.281964302062988
1749314571246,,-6.874351501464844,
1749314571247,-0.7457938194274902,,-6.357802391052246
1749314571312,-1.5167267322540283,-8.49283218383789,-6.597222805023193
1749314571378,-1.4113819599151611,-6.965331077575684,-6.204573631286621
1749314571448,-1.8614917993545532,-7.563881874084473,-6.496666431427002
1749314571511,-0.07062894850969315,-7.041945934295654,-6.841431140899658
1749314571577,,-5.490502834320068,
1749314571578,0.25977087020874023,-5.174468517303467,-6.908469200134277
1749314571645,,-7.247847080230713,
1749314571646,-0.4106055796146393,-6.960542678833008,-6.8557963371276855
1749314571711,,-7.635707855224609,
1749314571712,-1.7609353065490723,,-6.807912349700928
1749314571778,,-6.735487937927246,
1749314571779,-0.30526071786880493,-5.964554786682129,-7.583633899688721
1749314571846,-0.10893617570400238,-6.601412773132324,-7.487865924835205
1749314571911,-0.5351040959358215,-6.663661956787109,-6.937199592590332
1749314571978,0.1256955862045288,-6.855197906494141,-6.76002836227417
1749314572045,-0.7841010689735413,-6.898293495178223,-7.181407928466797
1749314572110,,-7.496844291687012,
1749314572111,-1.2437877655029297,-7.3436150550842285,-7.914033889770508
1749314572181,-0.1041477769613266,-6.563105583190918,-5.87896203994751
1749314572246,-0.20949265360832214,-6.4386067390441895,-6.946776390075684
1749314572314,-0.8607155084609985,-8.521562576293945,
1749314572315,-0.6835445761680603,,-6.357802391052246
1749314572377,,-6.673238754272461,
1749314572378,-0.8846575021743774,-6.136937618255615,-6.314706802368164
1749314572444,,-6.280589580535889,
1749314572445,-1.5263035297393799,-6.620566368103027,-7.64109468460083
1749314572511,,-7.2334818840026855,
1749314572512,-1.382651448249817,,-6.89410400390625
1749314572577,,-7.108983516693115,
1749314572578,-0.013168109580874443,-6.596624374389648,-6.554127216339111
1749314572645,,-6.4817023277282715,
1749314572646,-0.12330138683319092,,-7.032967567443848
1749314572711,-0.02753331884741783,-7.2574238777160645,-6.807912349700928
1749314572778,-0.05147533491253853,-6.8360443115234375,-6.48708963394165
1749314572779,,,-6.831854343414307
1749314572846,-1.0761936902999878,-6.496067523956299,
1749314572847,,,-7.229291915893555
1749314572912,-0.9660604000091553,-7.530363082885742,-7.061697959899902
1749314572978,-1.171961784362793,-6.7259111404418945,-7.1670427322387695
1749314573045,-0.2621650993824005,-6.9461774826049805,-6.736086368560791
1749314573112,-0.008379706181585789,-6.998850345611572,-6.185420036315918
1749314573178,-0.5398924946784973,-7.405864238739014,-6.903680801391602
1749314573246,,-6.840832710266113,
1749314573247,0.13527239859104156,,-6.7696051597595215
1749314573311,,-7.875127792358398,
1749314573312,-1.535880446434021,-7.9613189697265625,-7.071274757385254
1749314573378,,-9.326014518737793,
1749314573379,-2.5797524452209473,,-9.307458877563477
1749314573445,-1.5310919284820557,-7.678803443908691,
1749314573446,0.690727174282074,,-9.312247276306152
1749314573510,,-4.269460201263428,
1749314573511,0.9062053561210632,,-7.612364292144775
1749314573577,0.7050924301147461,-4.3843817710876465,-9.805453300476074
1749314573645,,-1.5879542827606201,
1749314573646,1.5957354307174683,,-9.082404136657715
1749314573711,,-0.23283611238002777,
1749314573712,,-0.40521863102912903,
1749314573714,0.547075092792511,,-7.846996307373047
1749314573777,,-1.2431892156600952,
1749314573778,1.2557587623596191,-1.7459715604782104,-8.067262649536133
1749314573843,,-2.8185739517211914,
1749314573844,2.318784236907959,,-11.648988723754883
1749314573911,0.7577648162841797,-1.2623428106307983,-7.243657112121582
1749314573978,0.5758054852485657,-2.497750997543335,-10.667366027832031
1749314574046,1.5191209316253662,-1.5879542827606201,-7.6315178871154785
1749314574111,0.2932897210121155,-2.3493103981018066,-10.705673217773438
1749314574178,0.35075053572654724,-1.4299370050430298,-9.834183692932129
1749314574245,0.9349357485771179,-1.7747019529342651,-8.541314125061035
1749314574312,0.8104372620582581,-3.0627825260162354,-10.705673217773438
1749314574381,0.6859387755393982,-2.478597402572632,-9.024943351745605
1749314574445,,-2.7467479705810547,
1749314574446,1.1216834783554077,-2.871246337890625,-8.775946617126465
1749314574513,0.767341673374176,-2.8137855529785156,-9.331400871276855
1749314574578,,-2.5791537761688232,
1749314574579,0.5997475385665894,-2.5552117824554443,-9.403226852416992
1749314574644,0.5422866940498352,-2.6222493648529053,
1749314574645,,,-9.479841232299805
1749314574712,0.2693476974964142,-2.583942174911499,-9.604340553283691
1749314574713,,,-9.815030097961426
1749314574778,,-1.9662381410598755,
1749314574779,-0.5111620426177979,-1.913565754890442,-9.829395294189453
1749314574844,,-1.6837223768234253,
1749314574845,-0.15682020783424377,-1.688510775566101,-9.657012939453125
1749314574888,,-1.4012064933776855,
1749314574889,0.23582886159420013,-1.5257049798965454,-9.307458877563477
1749314574912,-0.03711012750864029,-2.0428526401519775,
1749314574913,,,-9.747992515563965
1749314574979,0.20231004059314728,-1.9422961473464966,-9.240421295166016
1749314575045,-0.23343466222286224,-2.124255418777466,-10.006566047668457
1749314575113,0.09217676520347595,-2.272696018218994,
1749314575182,0.23582886159420013,-2.344521999359131,-8.967482566833496
1749314575246,-0.152031809091568,-2.406771183013916,-9.537302017211914
1749314575315,,-2.6653449535369873,
1749314575316,-0.1041477769613266,-2.8185739517211914,-9.786299705505371
1749314575378,-0.12330138683319092,-2.828150749206543,-9.733627319335938
1749314575444,,-2.7275943756103516,
1749314575445,-0.27653029561042786,-2.828150749206543,-9.384073257446289
1749314575512,,-2.5456349849700928,
1749314575513,-0.13766659796237946,,-9.431957244873047
1749314575578,,-2.6366145610809326,
1749314575579,0.22625206410884857,,-9.077615737915039
1749314575644,,-2.7754783630371094,
1749314575645,0.16400282084941864,-2.315791606903076,-9.882067680358887
1749314575712,-0.6308721303939819,-2.785055160522461,-9.93474006652832
1749314575778,-0.03232172131538391,-2.607884168624878,-9.580398559570312
1749314575844,0.22625206410884857,-2.406771183013916,-9.072827339172363
1749314575912,0.11611878126859665,-2.5121161937713623,-9.254786491394043
1749314575979,-0.2190694510936737,-2.5743653774261475,-9.62828254699707
1749314576045,-0.5015852451324463,-1.899200439453125,
1749314576046,-1.358709454536438,,-10.107122421264648
1749314576114,-2.675520420074463,-1.4107834100723267,-11.021707534790039
1749314576179,-1.215057373046875,0.04967968538403511,-10.451887130737305
1749314576246,-0.9660604000091553,-0.20889410376548767,-10.001777648925781
1749314576315,,-0.7595604658126831,
1749314576316,0.4273650050163269,,-9.412803649902344
1749314576379,0.6572083830833435,-2.1529858112335205,-9.6618013381958
1749314576445,,-2.052429437637329,
1749314576446,1.7106571197509766,,-8.469488143920898
1749314576513,0.010773907415568829,-2.258330821990967,
1749314576514,,,-9.398438453674316
1749314576578,,-2.315791606903076,
1749314576579,-0.4489128291606903,-2.5264813899993896,-9.920374870300293
1749314576646,-0.9516952037811279,-2.2679076194763184,-11.23718547821045
1749314576715,-0.41539400815963745,-2.0620062351226807,
1749314576716,-0.645237386226654,,-10.696096420288086
1749314576779,-0.5351040959358215,-1.4873977899551392,-10.02571964263916
1749314576780,,,-9.609128952026367
1749314576844,,-1.348534107208252,
1749314576845,-0.8463503122329712,-1.3102269172668457,-10.418368339538574
1749314576912,-1.1192892789840698,-1.1378443241119385,-9.288305282592773
1749314576979,-1.0905588865280151,-0.8313865661621094,-9.666589736938477
1749314577044,,-1.3293805122375488,
1749314577045,-0.4537012279033661,-1.1330559253692627,-9.642647743225098
1749314577113,,-1.7651251554489136,
1749314577114,-1.0330979824066162,-1.9183541536331177,-10.02571964263916
1749314577179,-1.3874398469924927,-2.0859482288360596,-10.413579940795898
1749314577246,-1.6603789329528809,-1.6454150676727295,-9.522936820983887
1749314577315,-0.9085995554924011,-0.23283611238002777,-9.029731750488281
1749314577379,-1.1432312726974487,-1.3389573097229004,-10.11669921875
1749314577448,-1.9285295009613037,-2.689286947250366,
1749314577449,,,-9.671378135681152
1749314577513,-1.0570400953292847,-2.713229179382324,-10.245985984802246
1749314577579,-2.316390037536621,-2.4450783729553223,
1749314577580,-1.8997989892959595,,-10.442310333251953
1749314577646,,-1.1330559253692627,
1749314577647,-1.416170358657837,,-8.311470985412598
1749314577715,-0.8750807046890259,-1.5065513849258423,-9.862914085388184
1749314577781,-1.0235211849212646,-3.0436289310455322,-9.781511306762695
1749314577845,,-2.8999767303466797,
1749314577846,-1.6747441291809082,,-10.035296440124512
1749314577912,,-2.5504233837127686,
1749314577913,-1.9524714946746826,,-9.609128952026367
1749314577980,-1.9285295009613037,-2.3540987968444824,-10.078392028808594
1749314578049,-1.0330979824066162,-1.1617863178253174,-9.384073257446289
1749314578112,,-1.6645687818527222,
1749314578113,-2.2206220626831055,-1.511339783668518,-9.71926212310791
1749314578178,-1.2725181579589844,-1.669357180595398,-10.408791542053223
1749314578179,,,-10.547656059265137
1749314578246,-2.345120668411255,-2.6557681560516357,-9.920374870300293
1749314578312,-0.7745242714881897,-1.492186188697815,-8.58919906616211
1749314578378,-1.9285295009613037,-1.9279309511184692,-9.570821762084961
1749314578445,,-2.3540987968444824,
1749314578446,-1.258152961730957,-2.02848744392395,-10.169371604919434
1749314578512,,-1.5304933786392212,
1749314578513,-2.191891670227051,-1.8944120407104492,-9.283516883850098
1749314578579,-2.033874273300171,-1.1426327228546143,-9.666589736938477
1749314578645,-1.5310919284820557,-1.2814964056015015,-9.518148422241211
1749314578712,-1.2485761642456055,-2.2870612144470215,-9.848548889160156
1749314578781,-1.0905588865280151,-2.516904592514038,-10.528501510620117
1749314578846,-1.8279730081558228,-1.348534107208252,-9.39365005493164
1749314578913,-0.6308721303939819,-1.0516531467437744,-8.268375396728516
1749314578978,,-1.6837223768234253,
1749314578979,-0.6308721303939819,-1.7507599592208862,-9.149441719055176
1749314579045,,-2.741959571838379,
1749314579046,-1.7848774194717407,,-10.447098731994629
1749314579112,,-2.301426410675049,
1749314579113,-2.3259668350219727,-2.3349452018737793,-10.83974838256836
1749314579180,,-1.8848352432250977,
1749314579182,-2.2589292526245117,,-10.351330757141113
1749314579245,,-1.2623428106307983,
1749314579246,-1.6508020162582397,-1.6932991743087769,-9.637859344482422
1749314579313,,-1.3102269172668457,
1749314579314,-0.8559271097183228,-0.6685808300971985,-8.412027359008789
1749314579378,,-1.0181342363357544,
1749314579379,-2.211045265197754,-1.4826093912124634,-9.891644477844238
1749314579445,-1.9045875072479248,-1.5640122890472412,-10.054450035095215
1749314579512,-1.3874398469924927,-1.4586673974990845,-9.77672290802002
1749314579513,,,-10.547656059265137
1749314579581,-2.0003554821014404,-0.6542156338691711,-8.881291389465332
1749314579646,-3.1016883850097656,-1.5257049798965454,-11.888408660888672
1749314579715,,0.12629413604736328,
1749314579716,-2.0817582607269287,-0.5919663906097412,-8.488641738891602
1749314579779,,0.06883329898118973,
1749314579780,-1.8950105905532837,,-8.455122947692871
1749314579845,-2.6132712364196777,-1.080383539199829,-10.811017990112305
1749314579912,-1.3682862520217896,-2.272696018218994,-10.351330757141113
1749314579913,,,-11.471817016601562
1749314579981,-1.4736311435699463,-0.9654618501663208,-8.603564262390137
1749314580045,,-0.44352585077285767,
1749314580046,-0.9277531504631042,-0.2902969419956207,-8.349778175354004
1749314580113,-3.2309751510620117,-0.8122329115867615,-11.423933029174805
1749314580179,-2.340332269668579,-1.7938556671142578,-11.309011459350586
1749314580245,-0.22385786473751068,-0.3381809890270233,-7.114370346069336
1749314580312,,-1.9518729448318481,
1749314580313,-3.4368765354156494,,-12.300210952758789
1749314580378,,-0.414795458316803,
1749314580379,-0.889445960521698,,-7.176619529724121
1749314580446,-2.9005753993988037,-2.3062148094177246,-10.60032844543457
1749314580447,,,-9.987412452697754
1749314580513,-0.6739677786827087,-1.6023194789886475,-9.221267700195312
1749314580579,-1.942894697189331,-1.544858694076538,-9.527725219726562
1749314580647,,-2.167351007461548,
1749314580648,-2.1152772903442383,,-9.819818496704102
1749314580716,-1.358709454536438,-3.158550500869751,-8.483853340148926
1749314580774,,-3.9390604496002197,
1749314580775,1.902193307876587,,-6.525396823883057
1749314580848,,-6.323685169219971,
1749314580849,-0.6787561774253845,,-11.510124206542969
1749314580913,0.5374982953071594,-3.6278140544891357,-8.234856605529785
1749314580979,-0.4297592043876648,-4.22157621383667,-9.115922927856445
1749314581045,,-3.848080635070801,
1749314581046,,-4.0970778465271,
1749314581047,-0.5877765417098999,,-9.187748908996582
1749314581113,-0.4776432514190674,-3.4171242713928223,-7.870938301086426
1749314581179,-0.424970805644989,-4.681262969970703,-8.68017864227295
1749314581246,-0.39145198464393616,-4.623802185058594,-9.613917350769043
1749314581313,-1.1097124814987183,-3.8289270401000977,-8.368931770324707
1749314581380,-0.9804255962371826,-3.9007530212402344,-9.32661247253418
1749314581445,,-3.891176223754883,
1749314581446,-0.18555063009262085,,-8.728062629699707
1749314581513,-0.6356605291366577,-3.9821560382843018,-9.015366554260254
1749314581580,,-4.106654644012451,
1749314581581,0.6859387755393982,,-8.086416244506836
1749314581645,,-3.62302565574646,
1749314581646,,-2.497750997543335,
1749314581647,-0.16639702022075653,,
1749314581648,-0.645237386226654,,-9.211690902709961
1749314583513,,-2.8137855529785156,
1749314583514,-3.37941575050354,-2.7275943756103516,-11.807005882263184
1749314583537,-2.2637176513671875,-2.1960813999176025,
1749314583538,,,-9.259574890136719
1749314583605,-1.8375498056411743,-2.057217836380005,-8.574832916259766
1749314583672,,-3.3740286827087402,
1749314583673,-1.2102689743041992,,-8.105569839477539
1749314583739,,-3.9246952533721924,
1749314583740,-0.6500257849693298,-3.5942952632904053,-10.188525199890137
1749314583805,-2.2876596450805664,-2.3493103981018066,-9.340977668762207
1749314584859,-1.2964602708816528,-3.2974143028259277,-8.833407402038574
1749314584930,,-0.9271546006202698,
1749314584931,0.9588778018951416,,-5.582081317901611
1749314584997,2.2373814582824707,-4.714781761169434,
1749314584998,,,-8.177395820617676
1749314590950,-2.589329242706299,-4.724358558654785,-8.163030624389648
1749314590967,-0.6165069341659546,-4.116231441497803,-8.340201377868652
1749314591037,,-5.480926036834717,
1749314591038,-0.16160862147808075,,-5.735310077667236
1749314598165,1.2222399711608887,-4.973355293273926,
1749314598166,-2.469619035720825,,-10.791864395141602
1749314598168,,-5.4426188468933105,
1749314598169,0.09217676520347595,-5.413888454437256,
1749314598170,-2.369062662124634,,-8.119935035705566
1749314598232,,-4.997297286987305,
1749314598234,-2.8095955848693848,-4.580706596374512,-11.66335391998291
1749314598300,,-4.293402194976807,
1749314598301,-2.321178436279297,-2.9526493549346924,-8.675390243530273
1749314599239,-2.206256866455078,-2.2822728157043457,-9.029731750488281
1749314599254,,-0.9702502489089966,
1749314599255,-0.707486629486084,,-7.061697959899902
1749314599321,,-2.583942174911499,
1749314599322,-1.780089020729065,-2.3924059867858887,-9.795876502990723
1749314599379,-2.096123695373535,-2.425924777984619,-9.460687637329102
1749314599409,-1.9955670833587646,-2.5073277950286865,-9.264363288879395
1749314599478,,-2.138620615005493,
1749314599481,-1.7753005027770996,-2.938283920288086,-8.632294654846191
1749314599509,,-2.7563247680664062,
1749314599510,-0.93254154920578,-1.755548357963562,-8.163030624389648
1749314599539,-1.7848774194717407,-2.4690206050872803,-9.039308547973633
1749314599619,-1.6938977241516113,-2.9526493549346924,-9.62828254699707
1749314599665,-1.4879963397979736,-1.999756932258606,-8.234856605529785
1749314599684,-1.7178397178649902,-3.1872811317443848,-9.513360023498535
1749314599733,-1.6938977241516113,-2.689286947250366,-8.488641738891602
1749314599798,-1.6268600225448608,-3.0101101398468018,-9.714473724365234
1749314599865,-1.5406688451766968,-3.177704095840454,-9.345766067504883
1749314599907,-1.382651448249817,-2.7563247680664062,-8.795100212097168
1749314599925,-2.3738510608673096,-2.9287071228027344,-9.84376049041748
1749314599992,-2.2589292526245117,-2.8568811416625977,-9.623494148254395
1749314600058,,-3.3692402839660645,
1749314600059,-2.7712883949279785,,-10.226832389831543
1749314600125,-0.9277531504631042,-3.110666513442993,-7.947552680969238
1749314600192,-2.009932279586792,-3.579930067062378,-10.60032844543457
1749314600259,-0.8463503122329712,-0.5776011347770691,-5.701791286468506
1749314600325,-2.029085874557495,-4.116231441497803,-10.322600364685059
1749314600393,-0.9660604000091553,-4.84406852722168,-7.559691905975342
1749314600458,0.11133038252592087,-5.6341552734375,-9.747992515563965
1749314600525,-0.2621650993824005,-6.093842029571533,-9.786299705505371
1749314600592,-0.3818751573562622,-5.31812047958374,-10.049661636352539
1749314600658,-0.9421183466911316,-4.245518207550049,-8.440757751464844
1749314600725,-0.8655039072036743,-4.638167381286621,-9.187748908996582
1749314600792,-1.5071499347686768,-4.159327030181885,-8.9866361618042
1749314600859,-0.4345476031303406,-3.7906198501586914,-8.603564262390137
1749314600925,-0.3196259140968323,-4.709993362426758,-8.148665428161621
1749314600992,-0.3100491166114807,-4.302978992462158,-8.708909034729004
1749314601058,-0.5159504413604736,-4.662109375,-8.426392555236816
1749314601125,-1.521515130996704,-4.614225387573242,-9.187748908996582
1749314601192,-0.8750807046890259,-4.43705415725708,-8.919598579406738
1749314601259,-1.5646108388900757,-4.178480625152588,-8.914810180664062
1749314601325,-0.1280897855758667,-3.575141668319702,-7.195773124694824
1749314601392,-1.1480196714401245,-5.3133320808410645,-10.595540046691895
1749314601460,0.5997475385665894,-4.551976203918457,-7.64109468460083
1749314601525,-1.171961784362793,-5.763442039489746,-10.15021800994873
1749314601592,-0.9373299479484558,-5.504868030548096,-9.498994827270508
1749314601659,-1.40180504322052,-4.724358558654785,-8.23006820678711
1749314601725,-1.0809820890426636,-4.063559055328369,
1749314601726,,,-8.254010200500488
1749314601792,0.07781155407428741,-4.3173441886901855,-7.693767070770264
1749314601859,,-5.198410511016846,
1749314601860,-0.18555063009262085,-4.944624900817871,-8.65623664855957
1749314601925,,-5.28460168838501,
1749314601926,-0.48243165016174316,-5.184045314788818,-9.154230117797852
1749314601992,0.020350715145468712,-4.484938144683838,-8.344989776611328
1749314602060,-0.6356605291366577,-3.97257924079895,-7.224503517150879
1749314602125,,-5.6676740646362305,
1749314602126,-2.2685060501098633,-5.595848083496094,-11.893197059631348
1749314602193,-0.4058171808719635,-4.872798919677734,-7.64109468460083
1749314602259,,-5.547964096069336,
1749314602260,-1.2342109680175781,,-9.039308547973633
1749314602325,0.973242998123169,-2.258330821990967,-6.080075263977051
1749314602393,-1.5263035297393799,-6.122572422027588,-10.356119155883789
1749314602459,,-4.638167381286621,
1749314602460,0.9014169573783875,,-9.077615737915039
1749314602526,0.13048399984836578,-3.421912670135498,-5.850231647491455
1749314602592,,-4.939836502075195,
1749314602593,-0.02274491637945175,,-9.824606895446777
1749314602660,-1.3012486696243286,-4.839280128479004,-9.106346130371094
1749314602725,,-4.331709384918213,
1749314602726,-1.2102689743041992,-4.709993362426758,-9.963470458984375
1749314602793,-0.25258827209472656,-4.240729808807373,-7.708132266998291
1749314602861,-0.42018240690231323,-3.886387825012207,-8.737639427185059
1749314602925,,-3.096301317214966,
1749314602926,-1.535880446434021,-2.689286947250366,-8.383296966552734
1749314602993,-1.698686122894287,-3.0579941272735596,-9.690531730651855
1749314603061,-0.3196259140968323,-3.2974143028259277,-7.363367557525635
1749314603126,-1.2342109680175781,-4.422688961029053,-8.756793022155762
1749314603192,-1.0235211849212646,-4.417900562286377,-10.51413631439209
1749314603193,,,-10.250774383544922
1749314603261,-1.4257471561431885,-3.1681272983551025,-8.335412979125977
1749314603326,-1.5119383335113525,-3.795408248901367,-8.062474250793457
1749314603392,,-4.3412861824035645,
1749314603393,-0.5494692921638489,-3.819350242614746,-9.216479301452637
1749314603460,-0.18555063009262085,-3.2830491065979004,
1749314603461,,,-8.20612621307373
1749314603526,-0.6548141837120056,-3.4745852947235107,-8.459911346435547
1749314603592,,-4.240729808807373,
1749314603593,-0.7266402244567871,-3.8959646224975586,-8.6897554397583
1749314603660,-0.750582218170166,-3.4075474739074707,-8.924386978149414
1749314603726,-0.2861070930957794,-3.1920695304870605,-7.612364292144775
1749314603792,,-4.925471305847168,
1749314603793,-0.5829881429672241,-4.595071792602539,-9.537302017211914
1749314603860,-0.41539400815963745,-4.791396141052246,
1749314603861,-0.1951274424791336,,-9.609128952026367
1749314603925,-2.0003554821014404,-3.7427358627319336,-9.929951667785645
1749314603992,,-3.09151291847229,
1749314603993,-0.9756371974945068,-3.153762102127075,-7.636306285858154
1749314604060,-0.9804255962371826,-4.073135852813721,-8.89565658569336
