timestamp,AccX,AccY,AccZ
1752098675879,0.10953472554683685,3.9402575492858887,7.572261333465576
1752098675919,0.34656068682670593,,11.255741119384766
1752098675922,,3.5715503692626953,
1752098675945,0.43514615297317505,,
1752098675946,,4.053982257843018,8.379107475280762
1752098676012,0.45429977774620056,4.016871929168701,8.18996524810791
1752098676079,0.535702645778656,,
1752098676081,,3.6278140544891357,9.245808601379395
1752098676146,0.17417816817760468,,
1752098676147,-0.14425064623355865,3.662529945373535,9.209895133972168
1752098676212,0.5620388388633728,,
1752098676213,0.6841431260108948,3.838503837585449,9.899425506591797
1752098676282,-0.06883329898118973,3.99532413482666,8.567051887512207
1752098676340,-1.2395979166030884,,
1752098676342,,3.515286684036255,10.294468879699707
1752098676346,0.14065934717655182,3.7068228721618652,8.575431823730469
1752098676412,-0.03890577703714371,4.101866245269775,8.85675048828125
1752098676480,-0.6613982319831848,3.795408248901367,8.526350975036621
1752098676542,-0.801459014415741,,
1752098676543,-1.2767080068588257,2.7347769737243652,8.541913032531738
1752098676547,-1.668160080909729,2.2391772270202637,10.616488456726074
1752098676617,-1.2395979166030884,2.425924777984619,11.727398872375488
1752098676681,-2.7946319580078125,1.787870168685913,7.465719223022461
1752098676749,-2.874837636947632,2.404376983642578,8.101380348205566
1752098676810,-3.6529531478881836,2.3792378902435303,6.688800811767578
1752098676812,-3.5272576808929443,,
1752098676813,,4.089895248413086,8.965686798095703
1752098676880,-7.958924770355225,1.9626468420028687,9.329605102539062
1752098676946,-2.123058319091797,3.8049850463867188,8.228272438049316
1752098677009,-5.641337871551514,,6.609792232513428
1752098677010,,3.066373825073242,
1752098677012,-6.138134479522705,3.309385299682617,5.9070940017700195
1752098677083,-5.570708751678467,3.9498343467712402,6.616974830627441
1752098677143,-5.18284797668457,,
1752098677145,,3.0208840370178223,8.229470252990723
1752098677146,-4.010886192321777,,
1752098677148,,4.379593372344971,6.443395137786865
1752098677212,-3.1908724308013916,,
1752098677213,-4.277839660644531,4.061164855957031,4.8716020584106445
1752098677281,-7.484873294830322,,1.6514005661010742
1752098677282,,4.969764232635498,1.7292121648788452
1752098677356,-11.205462455749512,1.5783774852752686,4.059967517852783
1752098677413,-5.751471042633057,0.25079262256622314,9.762955665588379
1752098677480,0.2687491476535797,-1.7663222551345825,3.4865562915802
1752098677546,1.4598644971847534,-6.462548732757568,-5.609015941619873
1752098677575,-12.121244430541992,-15.443199157714844,-5.806537628173828
1752098677612,-15.136741638183594,-18.960281372070312,-5.394734859466553
1752098677679,-21.930288314819336,,
1752098677681,,-15.993865966796875,-15.902886390686035
1752098677746,-18.728044509887695,-10.251373291015625,-3.0783448219299316
1752098677812,-14.674660682678223,,
1752098677813,,-7.071873188018799,-2.5755624771118164
1752098677875,-9.628880500793457,,
1752098677876,,-3.7223851680755615,-1.3844470977783203
1752098677882,-6.699574947357178,-3.8792052268981934,-5.539584159851074
1752098677946,-6.357203960418701,-4.100668907165527,-0.14903905987739563
1752098678012,-4.693233966827393,-4.78660774230957,2.407968282699585
1752098678038,-5.211578369140625,-3.6493618488311768,-0.17537526786327362
1752098678077,3.887584924697876,-6.039972305297852,0.32860419154167175
1752098678146,-9.855133056640625,-10.895413398742676,1.002571940422058
1752098678203,-2.671330451965332,-8.564658164978027,-3.271078109741211
1752098678212,-2.6641478538513184,,
1752098678213,,-7.417835235595703,-4.603451251983643
1752098678279,-3.2160115242004395,-9.304466247558594,-0.7032967209815979
1752098678344,-8.877100944519043,-11.723807334899902,1.9171570539474487
1752098678346,-13.133992195129395,-11.156381607055664,3.620631456375122
1752098678417,-12.463615417480469,-9.665990829467773,0.2735375463962555
1752098678418,-14.071321487426758,-6.940192222595215,-6.194398403167725
1752098678480,-11.631629943847656,-7.150881767272949,-1.7663222551345825
1752098678527,-7.221510887145996,-5.911882400512695,0.8038532137870789
1752098678560,-7.603385925292969,,
1752098678561,-6.129755020141602,-5.482123374938965,1.1390414237976074
1752098678592,-4.302978992462158,-3.6134488582611084,0.353743314743042
1752098678626,-5.520430564880371,-4.79738187789917,1.4383167028427124
1752098678692,-9.166799545288086,-3.5236663818359375,-2.0021512508392334
1752098678757,-3.889979124069214,0.3166331648826599,-1.9470845460891724
1752098678824,-0.6314706802368164,,
1752098678825,,-6.609792232513428,-0.14903905987739563
1752098678891,-4.897938251495361,,
1752098678892,,-11.601702690124512,3.619434356689453
1752098678957,-7.102997779846191,-20.773889541625977,-2.2463598251342773
1752098679025,-11.242572784423828,-16.54094123840332,-0.03172317147254944
1752098679092,-0.4255693554878235,-7.299322605133057,-1.7962498664855957
1752098679158,-5.838859558105469,,
1752098679160,-11.247361183166504,,1.8884265422821045
1752098679161,,-8.127716064453125,0.1885433793067932
1752098679225,-11.963227272033691,-5.652111530303955,-4.535216331481934
1752098679293,-6.186018466949463,,
1752098679294,,-3.221997022628784,-0.800261914730072
1752098679357,-5.331288814544678,,
1752098679358,-7.019200801849365,-3.6960489749908447,-0.12270283699035645
1752098679425,-15.595231056213379,,
1752098679426,,-1.3640964031219482,-0.13946224749088287
1752098679491,-3.473388195037842,,
1752098679492,0.3381809890270233,-9.478046417236328,5.175665378570557
1752098679559,0.7116764783859253,-4.021660327911377,-6.970119476318359
1752098679625,-2.316988706588745,,
1752098679626,,-4.835689067840576,5.252279758453369
1752098679697,-16.794727325439453,-11.055825233459473,-7.202357292175293
1752098679700,,-7.498041152954102,
1752098679757,-4.821323871612549,,
1752098679758,,-2.249951124191284,-6.2614359855651855
1752098679828,-3.7918169498443604,-7.055113792419434,0.011372458189725876
1752098679892,-4.514865875244141,-4.809352874755859,-1.7076643705368042
1752098679959,-0.5764040350914001,-3.3848025798797607,-0.1801636815071106
1752098680025,-2.6880898475646973,-13.706206321716309,-1.7172411680221558
1752098680041,-0.43993455171585083,-22.605453491210938,12.126032829284668
1752098680091,-1.5221136808395386,,
1752098680092,-1.512536883354187,-10.399813652038574,1.4359225034713745
1752098680158,-0.8038532137870789,-5.415085792541504,-7.978078842163086
1752098680224,-3.3895909786224365,-11.209053993225098,0.15741875767707825
1752098680292,-2.829347848892212,,
1752098680293,,-8.743025779724121,2.7287914752960205
1752098680359,-2.743156671524048,-9.55705451965332,0.31543606519699097
1752098680425,-2.3457190990448,-9.169194221496582,0.5644330382347107
1752098680492,-1.909974455833435,,
1752098680493,,-9.925761222839355,-0.6661866307258606
1752098680559,-2.4175450801849365,-9.686341285705566,-1.8441338539123535
1752098680625,-2.5468320846557617,,
1752098680626,-3.221997022628784,-8.388684272766113,0.9762357473373413
1752098680691,-4.69682502746582,,
1752098680692,-4.443039894104004,-9.518747329711914,0.4638765752315521
1752098680757,-1.8142063617706299,-10.524312019348145,-1.853710651397705
1752098680824,-0.5740098357200623,-10.83555793762207,-1.8584990501403809
1752098680892,-1.0336965322494507,-9.264962196350098,-0.6949170231819153
1752098680958,-2.1924901008605957,-9.825204849243164,-0.1538274586200714
1752098681024,-1.9961656332015991,,
1752098681025,-2.0201077461242676,-8.814851760864258,0.16220717132091522
1752098681092,-2.6138696670532227,-10.174758911132812,-0.5943605899810791
1752098681157,-3.533243179321289,,
1752098681158,-3.8827965259552,-6.224325656890869,-0.010175357572734356
1752098681225,-5.558737754821777,-10.605714797973633,-0.1777694821357727
1752098681292,-1.9578584432601929,,
1752098681293,-1.0384849309921265,-10.830769538879395,-2.8640637397766113
1752098681358,0.40282443165779114,-10.112509727478027,0.26755204796791077
1752098681424,-0.48303020000457764,,
1752098681425,,-8.996811866760254,-0.5273229479789734
1752098681492,-2.4175450801849365,,0.7846996188163757
1752098681493,,-9.576208114624023,0.5069721937179565
1752098681558,-3.1501708030700684,-9.748590469360352,-0.6805518269538879
1752098681625,-2.2834699153900146,-8.776544570922852,-0.9391255974769592
1752098681626,,-9.193136215209961,
1752098681692,-2.8772318363189697,-9.906607627868652,-0.01975216343998909
1752098681693,,-9.365518569946289,
1752098681758,-4.13179349899292,-9.193136215209961,-0.8194155097007751
1752098681825,-3.906738519668579,-8.834005355834961,-0.3166331648826599
1752098681892,-2.388814687728882,-9.88745403289795,-0.8337807655334473
1752098681959,-1.68970787525177,-9.8970308303833,-0.7858967185020447
1752098682027,-1.9722236394882202,,
1752098682028,-2.805405855178833,-9.930550575256348,-0.2064998894929886
1752098682092,-3.1501708030700684,-9.312846183776855,-2.050035238265991
1752098682159,-1.6944962739944458,-8.412626266479492,-0.23523031175136566
1752098682226,-2.6856956481933594,,
1752098682227,,-8.024765968322754,-1.4993687868118286
1752098682294,-4.160523891448975,-7.656058311462402,-0.37409400939941406
1752098682359,-5.558737754821777,,-1.4036006927490234
1752098682360,,-9.801262855529785,
1752098682425,-4.189254283905029,-9.46607494354248,-1.997362732887268
1752098682494,-3.1980550289154053,-10.89301872253418,-2.255936622619629
1752098682559,-2.479794502258301,-7.890690326690674,-0.37409400939941406
1752098682624,-3.4087445735931396,,0.9091981053352356
1752098682625,,-9.394248962402344,
1752098682692,-4.524442672729492,-10.031106948852539,-0.25917232036590576
1752098682757,-2.3074119091033936,,0.497395396232605
1752098682758,,-9.595361709594727,0.5883750915527344
1752098682824,-1.8860323429107666,-9.173982620239258,1.4311341047286987
1752098682892,-2.6617536544799805,-9.657610893249512,-5.985504249110818E-4
1752098682958,-2.9730000495910645,,
1752098682959,,-10.237008094787598,-5.985504249110818E-4
1752098683027,-2.9011738300323486,-9.30805778503418,-0.0867898091673851
1752098683092,-2.0679917335510254,-9.873088836669922,-1.9877859354019165
1752098683159,-0.7368155717849731,-10.7110595703125,-2.1984755992889404
1752098683225,0.982221245765686,,
1752098683226,0.3645172119140625,-9.106945037841797,0.6314706802368164
1752098683292,-3.092710018157959,,
1752098683293,-3.135805606842041,-7.39748477935791,-1.2886791229248047
1752098683358,-2.8628666400909424,-7.105391979217529,-3.57753586769104
1752098683426,-6.435015678405762,,
1752098683427,-8.834005355834961,-11.798027038574219,-6.8575921058654785
1752098683491,-5.146934986114502,,
1752098683492,-3.4135329723358154,-5.472546577453613,1.6561890840530396
1752098683558,0.9678560495376587,,-5.574300289154053
1752098683559,,-7.033565998077393,1.0097545385360718
1752098683627,-5.941810131072998,-11.788450241088867,-5.6461262702941895
1752098683693,-0.5261258482933044,-8.958504676818848,-1.5999252796173096
1752098683759,-6.86597204208374,,-1.7627309560775757
1752098683760,,-10.102932929992676,
1752098683826,-0.7894880175590515,-7.435791969299316,1.2204443216323853
1752098683892,-4.8309006690979,,
1752098683893,-4.275445461273193,-10.89301872253418,-2.145803213119507
1752098683959,-3.135805606842041,-7.426215171813965,-1.9207483530044556
1752098684026,-4.783016681671143,-10.107721328735352,-3.290231704711914
1752098684091,-2.2595279216766357,,
1752098684092,-4.328118324279785,-9.336788177490234,-1.2407950162887573
1752098684158,-3.044826030731201,-9.389460563659668,-2.1074960231781006
1752098684225,-1.6944962739944458,,
1752098684226,,-8.561066627502441,-1.0301052331924438
1752098684292,-5.285799026489258,,
1752098684293,-3.2363622188568115,-10.308834075927734,-2.0404584407806396
1752098684358,-0.25318682193756104,-8.958504676818848,1.7232266664505005
1752098684426,-2.781463861465454,-8.795698165893555,0.8565256595611572
1752098684492,-3.624222755432129,-11.798027038574219,-0.06763619929552078
1752098684557,-1.7471686601638794,,
1752098684558,,-7.019200801849365,0.5117605924606323
1752098684626,-6.7941460609436035,-9.442132949829102,-2.720411777496338
1752098684691,-1.1677719354629517,-8.853158950805664,-4.132990837097168
1752098684692,,-8.901042938232422,
1752098684759,-0.0999579206109047,-10.447697639465332,-2.121861219406128
1752098684826,-1.2300211191177368,,
1752098684827,,-9.178771018981934,-1.2168530225753784
1752098684891,-1.775899052619934,,
1752098684892,,-9.844358444213867,-4.286219596862793
1752098684959,-0.7416039705276489,-8.216301918029785,-2.849698543548584
1752098685025,-1.4981716871261597,,
1752098685026,-3.2555158138275146,-8.474875450134277,-1.9686323404312134
1752098685091,-4.246715068817139,,
1752098685092,,-9.442132949829102,-0.618302583694458
1752098685158,2.4857800006866455,,
1752098685159,1.7818846702575684,-7.378331184387207,0.9953893423080444
1752098685226,-0.3298012912273407,,-5.818508625030518
1752098685293,0.24001872539520264,-8.091803550720215,-0.9965864419937134
1752098685294,,-7.684788703918457,
1752098685358,-4.146158695220947,,0.6697779297828674
1752098685359,,-9.384672164916992,
1752098685427,-4.002506732940674,-9.609726905822754,-2.1745336055755615
1752098685492,0.23523031175136566,-8.982446670532227,-1.2886791229248047
1752098685558,-2.9730000495910645,-10.304045677185059,-0.09157821536064148
1752098685625,-0.9235633015632629,,
1752098685626,-2.4654293060302734,-9.379883766174316,-0.7667431235313416
1752098685691,-0.7894880175590515,-9.336788177490234,-0.7715315222740173
1752098685759,-3.5859155654907227,-9.9401273727417,-1.125873327255249
1752098685825,-2.4845829010009766,-9.303269386291504,-1.3365631103515625
1752098685891,-1.7806875705718994,-9.46607494354248,-1.1402385234832764
1752098685959,-0.22924481332302094,-9.533112525939941,-1.006163239479065
1752098686026,-1.9626468420028687,,
1752098686027,-1.2012907266616821,-10.160393714904785,-0.5847837924957275
1752098686091,-2.1781249046325684,-9.743802070617676,-3.3189620971679688
1752098686157,-2.316988706588745,-9.480440139770508,-0.0628477931022644
1752098686225,-1.8716671466827393,-9.513958930969238,-2.538452386856079
1752098686293,-1.24917471408844,-9.595361709594727,-1.2360066175460815
1752098686358,-1.6849194765090942,-8.9249849319458,-1.8058266639709473
1752098686426,-2.384026288986206,-9.844358444213867,-1.566406488418579
1752098686491,-2.1350293159484863,-10.055048942565918,-2.2176294326782227
1752098686492,,-10.763731956481934,
1752098686558,-0.9331400990486145,,
1752098686559,-1.2443863153457642,-8.704718589782715,-1.2791022062301636
1752098686625,-3.3033998012542725,,
1752098686626,,-9.992799758911133,-1.8728642463684082
1752098686691,-1.1198878288269043,,
1752098686692,,-10.136451721191406,-2.097919225692749
1752098686758,-1.3593080043792725,,
1752098686759,,-8.9680814743042,-2.212841033935547
1752098686825,-2.676118850708008,,-0.6039373874664307
1752098686826,,-9.968857765197754,-0.8289923667907715
1752098686891,-2.2212207317352295,,
1752098686892,-1.8812439441680908,-9.427767753601074,-1.1976994276046753
1752098686958,-1.445499300956726,,
1752098686959,-2.0919337272644043,-10.43812084197998,-2.581547975540161
1752098687026,-1.4359225034713745,,
1752098687027,,-8.987235069274902,-0.8337807655334473
1752098687091,-1.876455545425415,-9.226655006408691,-1.8441338539123535
1752098687092,,-9.298480987548828,
1752098687159,-2.700061082839966,-9.700706481933594,-1.346139907836914
1752098687227,-1.2395979166030884,-9.073426246643066,-1.5376760959625244
1752098687293,-0.43514615297317505,-8.896254539489746,-1.3844470977783203
1752098687359,-3.4997243881225586,-9.791686058044434,-2.294243812561035
1752098687425,-2.7958290576934814,,
1752098687426,,-9.140463829040527,-1.6765397787094116
1752098687492,-1.5843629837036133,,
1752098687493,-2.7287914752960205,-8.455721855163574,-1.4419080018997192
1752098687559,-3.686472177505493,-10.213066101074219,-1.853710651397705
1752098687625,-1.9003976583480835,,
1752098687626,,-9.011177062988281,-0.5512649416923523
1752098687694,-0.9283517003059387,-8.436568260192871,-0.9965864419937134
1752098687757,-3.7630865573883057,-9.820416450500488,-1.4131776094436646
1752098687825,-1.1150994300842285,-9.346364974975586,-0.3166331648826599
1752098687890,-1.7615338563919067,,
1752098687891,-1.6801310777664185,-8.450933456420898,-1.4036006927490234
1752098687957,-4.644152641296387,-9.686341285705566,-0.48901569843292236
1752098688025,-1.2874820232391357,-9.571419715881348,-1.2503718137741089
1752098688090,-1.1581950187683105,,
1752098688091,,-8.929773330688477,-0.6374561786651611
1752098688157,-3.9641995429992676,-9.43255615234375,-1.1881226301193237
1752098688224,-1.4646528959274292,-9.585784912109375,-1.6765397787094116
1752098688292,-0.823006808757782,,
1752098688293,-1.349731206893921,-8.848370552062988,-0.9917980432510376
1752098688358,-2.9777884483337402,-9.595361709594727,-1.0684125423431396
1752098688425,-1.3162124156951904,-9.370306968688965,-1.5424644947052002
1752098688490,-1.8477251529693604,,
1752098688491,-1.4598644971847534,-9.499593734741211,-1.734000563621521
1752098688557,-2.762310266494751,,
1752098688558,,-9.729436874389648,-0.5991489887237549
1752098688626,-1.7663222551345825,-9.384672164916992,-2.275090217590332
1752098688692,-1.632246971130371,-9.542689323425293,-1.8824410438537598
1752098688758,-2.2595279216766357,,
1752098688759,-1.7711106538772583,-9.461286544799805,-0.6757634282112122
1752098688825,-0.9379284977912903,,
1752098688826,-1.1677719354629517,,
1752098688827,,-9.64803409576416,-2.0883424282073975
1752098688892,-1.2348095178604126,-9.202713012695312,-1.7004817724227905
1752098688958,-2.9011738300323486,-9.815628051757812,-1.7196353673934937
1752098689025,-1.7615338563919067,-9.06863784790039,-0.9343371987342834
1752098689091,-1.4502876996994019,,
1752098689092,,-9.513958930969238,-1.2503718137741089
1752098689158,-1.2826935052871704,,-1.0923545360565186
1752098689159,,-9.288904190063477,-1.3988122940063477
1752098689226,-2.0248961448669434,-9.944915771484375,-1.2168530225753784
1752098689292,-1.6035165786743164,,
1752098689293,-2.3696610927581787,-9.547477722167969,-1.1019313335418701
1752098689359,-1.8908207416534424,-9.355941772460938,-2.4618380069732666
1752098689425,-1.8620903491973877,-9.595361709594727,-2.586336374282837
1752098689491,-1.8477251529693604,,
1752098689492,,-9.509170532226562,-1.0205284357070923
1752098689559,-1.4407109022140503,,
1752098689560,-1.3736732006072998,-9.566631317138672,-1.5424644947052002
1752098689625,-1.1725603342056274,-8.781332969665527,-1.3844470977783203
1752098689691,-1.9195512533187866,,
1752098689692,,-9.86351203918457,-1.4179660081863403
1752098689758,-2.3552958965301514,,
1752098689759,-2.168548107147217,-9.533112525939941,-1.489791989326477
1752098689825,-1.3449428081512451,-9.317634582519531,-0.8720879554748535
1752098689892,-1.9961656332015991,-10.06462574005127,-1.326986312866211
1752098689959,-1.876455545425415,-9.34157657623291,-0.5991489887237549
1752098690025,-2.62823486328125,-10.016741752624512,-0.8577227592468262
1752098690091,-1.4024035930633545,,
1752098690092,,-9.365518569946289,-1.710058569908142
1752098690159,-2.427121877670288,,
1752098690160,-2.3696610927581787,-9.49001693725586,-0.9965864419937134
1752098690228,-1.713649868965149,-9.729436874389648,-0.08200141042470932
1752098690292,-1.3210008144378662,-9.21707820892334,-1.3317747116088867
1752098690359,-1.445499300956726,-9.456498146057129,-1.3940238952636719
1752098690425,-1.1917139291763306,-9.604938507080078,-1.3078327178955078
1752098690491,-2.5947160720825195,,
1752098690492,,-10.241796493530273,-2.0883424282073975
1752098690560,-2.3313539028167725,-9.011177062988281,-1.8920178413391113
1752098690625,-3.2746694087982178,-9.825204849243164,-1.690904974937439
1752098690692,-1.6609774827957153,-8.905831336975098,0.5069721937179565
1752098690759,0.16819266974925995,,
1752098690760,-0.36332011222839355,-9.087791442871094,-2.629431962966919
1752098690825,-2.1972784996032715,,
1752098690826,-2.101510524749756,,
1752098690827,,-9.691129684448242,-4.046799659729004
1752098690891,-1.2731167078018188,,
1752098690892,-1.3162124156951904,-8.762179374694824,-1.911171555519104
1752098690959,-2.6569652557373047,,
1752098690960,-2.585139274597168,-9.288904190063477,-2.7299885749816895
1752098691026,-1.1007342338562012,-9.528324127197266,-2.102707624435425
1752098691092,-1.3353660106658936,-9.734225273132324,-2.586336374282837
1752098691158,-1.9674352407455444,,
1752098691159,-2.609081268310547,-9.513958930969238,-2.227206230163574
1752098691224,-2.896385431289673,,
1752098691225,,-9.715071678161621,-2.5719711780548096
1752098691292,-3.6385879516601562,,
1752098691293,,-8.886677742004395,-2.390011787414551
1752098691359,-2.0201077461242676,-8.082226753234863,-1.4036006927490234
1752098691425,-2.235585927963257,-10.055048942565918,-0.5991489887237549
1752098691491,-1.5939397811889648,,
1752098691492,-2.18770170211792,-10.198700904846191,0.7032967209815979
1752098691558,-3.0783448219299316,,
1752098691559,,-10.275315284729004,-0.4794389009475708
1752098691624,-1.8525135517120361,,
1752098691625,,-8.944138526916504,-0.1107318252325058
1752098691691,-3.111863613128662,,
1752098691692,,-9.312846183776855,0.5740098357200623
1752098691758,-3.691260576248169,,
1752098691759,-3.820547342300415,-9.255385398864746,-0.1777694821357727
1752098691825,-3.0783448219299316,-9.30805778503418,-0.42197805643081665
1752098691891,-2.498948097229004,,-0.25917232036590576
1752098691892,,-9.408614158630371,-0.07242459803819656
1752098691959,-2.431910276412964,,
1752098691960,,-9.470863342285156,0.5069721937179565
1752098692025,-3.447052001953125,-9.379883766174316,0.39205053448677063
1752098692091,-2.6856956481933594,,
1752098692092,-2.565985679626465,-9.18355941772461,-0.7954735159873962
1752098692159,-2.5037364959716797,,
1752098692160,,-10.06462574005127,-0.048482585698366165
1752098692224,-2.585139274597168,,
1752098692225,,-9.810839653015137,-0.718859076499939
1752098692292,-2.633023262023926,,
1752098692293,-2.6617536544799805,-9.078214645385742,-0.8912416100502014
1752098692359,-2.6856956481933594,-9.255385398864746,-0.579995334148407
1752098692425,-2.2882583141326904,,
1752098692426,,-9.049484252929688,-0.9391255974769592
1752098692491,-2.6617536544799805,,
1752098692492,,-9.140463829040527,-1.1210849285125732
1752098692558,-1.8381483554840088,,
1752098692559,-1.6083049774169922,-9.959280967712402,-2.4187421798706055
1752098692625,-2.3457190990448,-9.82999324798584,-1.9829975366592407
1752098692691,-2.7910406589508057,,
1752098692692,,-8.561066627502441,-3.13700270652771
1752098692760,-3.4374752044677734,-9.901819229125977,-0.49380409717559814
1752098692825,-1.8860323429107666,,
1752098692826,,-9.576208114624023,-2.0691888332366943
1752098692891,-0.8565256595611572,,
1752098692892,,-8.82442855834961,-1.370081901550293
1752098692959,-0.076015904545784,-9.020753860473633,-3.553593873977661
1752098692960,,-8.934561729431152,
1752098693025,-2.6617536544799805,-10.663175582885742,-2.050035238265991
1752098693091,-2.360084295272827,,
1752098693092,,-8.743025779724121,-2.7539305686950684
1752098693159,-2.0871453285217285,-10.490793228149414,-0.8242039084434509
1752098693226,-1.8908207416534424,-10.165182113647461,-3.002927541732788
1752098693292,-1.5556325912475586,,
1752098693293,-2.1350293159484863,-8.206725120544434,-2.1314380168914795
1752098693359,-1.5939397811889648,-10.385448455810547,-2.1314380168914795
1752098693425,-3.648164749145508,-10.24658489227295,-2.097919225692749
1752098693492,-2.2403743267059326,-7.957727909088135,-2.3133974075317383
1752098693559,-1.9674352407455444,-10.486004829406738,-2.2176294326782227
1752098693624,-2.494159698486328,,
1752098693625,,-8.268974304199219,-1.710058569908142
1752098693691,-4.548384666442871,,
1752098693692,,-9.700706481933594,-1.346139907836914
1752098693759,-2.8006174564361572,,
1752098693760,,,-2.8161797523498535
1752098693761,,-6.985682010650635,
1752098693825,-3.796605348587036,-9.18355941772461,-3.266289710998535
1752098693892,-3.4326868057250977,,-1.690904974937439
1752098693893,,-8.843582153320312,
1752098693959,-2.762310266494751,-8.374319076538086,-1.7435773611068726
1752098694025,-4.6489410400390625,,-2.0165164470672607
1752098694026,,-9.116521835327148,-1.7148469686508179
1752098694091,-2.8580782413482666,,-2.23199462890625
1752098694092,,-9.245808601379395,-1.5711948871612549
1752098694159,-3.0400376319885254,-8.51797103881836,-1.6238672733306885
1752098694225,-3.7247793674468994,-9.083003044128418,-2.208052635192871
1752098694292,-3.825335741043091,,
1752098694293,-2.9011738300323486,-9.044695854187012,-2.653373956680298
1752098694359,-1.8525135517120361,-8.944138526916504,-1.2982559204101562
1752098694425,-3.250727415084839,-8.953716278076172,-1.9207483530044556
1752098694491,-3.6290111541748047,,-1.9925743341445923
1752098694492,,-9.193136215209961,-2.1553800106048584
1752098694559,-3.049614429473877,-9.140463829040527,-1.9494787454605103
1752098694624,-2.671330451965332,,
1752098694625,,-8.872312545776367,-2.60548996925354
1752098694691,-3.116652011871338,,
1752098694692,,-9.087791442871094,-2.3948001861572266
1752098694760,-2.714426279067993,-9.317634582519531,-1.8920178413391113
1752098694825,-2.6665420532226562,-9.116521835327148,-1.6861165761947632
1752098694891,-3.001730442047119,-9.331999778747559,-2.868852138519287
1752098694892,,-9.18355941772461,
1752098694959,-2.18770170211792,-9.317634582519531,-2.3564929962158203
1752098695026,-2.958634853363037,-8.939350128173828,-1.5759832859039307
1752098695091,-3.839700937271118,,
1752098695092,,-8.532336235046387,-1.6861165761947632
1752098695160,-3.3081881999969482,-9.303269386291504,-2.5336639881134033
1752098695225,-3.092710018157959,-9.241020202636719,-2.07397723197937
1752098695292,-2.829347848892212,,
1752098695293,-3.7247793674468994,-9.1260986328125,-1.79146146774292
1752098695358,-3.3895909786224365,,
1752098695359,,-8.829216957092285,-2.366069793701172
1752098695425,-3.001730442047119,-9.197924613952637,-2.7730841636657715
1752098695492,-3.116652011871338,,-2.586336374282837
1752098695493,,-8.541913032531738,-3.0412347316741943
1752098695558,-3.336918592453003,-8.604162216186523,-2.6581623554229736
1752098695625,-3.7056257724761963,-9.121310234069824,-1.4083890914916992
1752098695692,-2.9299042224884033,-9.298480987548828,-0.9295487999916077
1752098695693,,-9.054272651672363,
1752098695759,-2.676118850708008,-9.30805778503418,-1.9877859354019165
1752098695824,-3.1645359992980957,,
1752098695825,-3.2315738201141357,-9.293692588806152,-2.078765630722046
1752098695892,-3.557185173034668,-8.474875450134277,-2.44747257232666
1752098695958,-3.605069160461426,-8.666411399841309,-2.2894554138183594
1752098696025,-3.356072187423706,-8.9680814743042,-2.7970261573791504
1752098696092,-3.154959201812744,,
1752098696094,,-9.255385398864746,-1.5185223817825317
1752098696159,-2.9107506275177,-9.102156639099121,-1.66696298122406
1752098696226,-2.8149826526641846,-9.456498146057129,-1.4562731981277466
1752098696293,-3.3512837886810303,-8.944138526916504,-2.2224178314208984
1752098696359,-3.4087445735931396,-9.039907455444336,-2.0213048458099365
1752098696425,-3.5859155654907227,-8.805274963378906,-2.8113913536071777
1752098696492,-3.269881010055542,-8.704718589782715,-1.9255367517471313
1752098696558,-3.336918592453003,-8.905831336975098,-2.337339401245117
1752098696624,-3.380014181137085,,
1752098696625,-3.466205596923828,-9.087791442871094,-1.5376760959625244
1752098696692,-3.183689594268799,-9.09257984161377,-2.0260932445526123
1752098696758,-3.1453824043273926,-9.293692588806152,-1.5520412921905518
1752098696824,-3.4757823944091797,,
1752098696825,-3.3273417949676514,-8.9249849319458,-2.5240871906280518
1752098696892,-3.4087445735931396,-8.771756172180176,-1.9063831567764282
1752098696958,-3.0160956382751465,-8.85794734954834,-2.586336374282837
1752098697024,-3.1932666301727295,,
1752098697025,-3.1693243980407715,-8.958504676818848,-1.4850035905838013
1752098697092,-2.8341362476348877,-9.279327392578125,-1.3509283065795898
1752098697158,-2.9777884483337402,,
1752098697159,-3.293823003768921,-9.298480987548828,-1.9734207391738892
1752098697225,-2.7240030765533447,-9.43255615234375,-2.050035238265991
1752098697293,-3.2124202251434326,-8.867524147033691,-2.610278367996216
1752098697358,-3.1070752143859863,-8.872312545776367,-1.7292121648788452
1752098697425,-3.135805606842041,-9.073426246643066,-1.997362732887268
1752098697492,-2.604292869567871,,
1752098697493,,-9.394248962402344,-2.035670042037964
1752098697558,-2.470217704772949,-9.212289810180664,-1.9446903467178345
1752098697624,-3.0783448219299316,,
1752098697625,-2.939481019973755,-8.838793754577637,-1.9877859354019165
1752098697692,-3.538031578063965,,
1752098697693,,-8.872312545776367,-1.978209137916565
1752098697758,-3.375225782394409,,
1752098697759,-3.3943793773651123,-9.083003044128418,-1.997362732887268
1752098697824,-2.690484046936035,,
1752098697825,,-9.379883766174316,-1.7004817724227905
1752098697892,-2.8868086338043213,,
1752098697893,-2.7048494815826416,-9.140463829040527,-1.896806240081787
1752098697958,-2.7910406589508057,-9.09257984161377,-1.7292121648788452
1752098697959,,-9.269750595092773,
1752098698025,-3.3033998012542725,,
1752098698026,,-8.905831336975098,-2.236783027648926
1752098698092,-3.3704373836517334,-8.97765827178955,-2.1314380168914795
1752098698158,-3.135805606842041,,
1752098698159,,-8.939350128173828,-2.0691888332366943
1752098698224,-2.896385431289673,,
1752098698225,-3.1501708030700684,-9.49001693725586,-1.8920178413391113
1752098698293,-2.561197280883789,,
1752098698294,-2.5707740783691406,-9.063849449157715,-1.954267144203186
1752098698358,-2.695272445678711,-9.020753860473633,-1.710058569908142
1752098698427,-3.0831332206726074,-9.063849449157715,-2.404376983642578
1752098698493,-2.7910406589508057,-9.145252227783203,-1.614290475845337
1752098698560,-3.0352492332458496,-9.207501411437988,-1.935113549232483
1752098698625,-2.8772318363189697,,-1.7579425573349
1752098698626,,-9.413402557373047,
1752098698693,-2.781463861465454,-9.073426246643066,-2.0883424282073975
1752098698758,-2.762310266494751,-8.97765827178955,-1.9638439416885376
1752098698825,-2.8772318363189697,-9.059061050415039,-1.896806240081787
1752098698892,-2.7910406589508057,-9.207501411437988,-1.7962498664855957
1752098698958,-2.958634853363037,-9.245808601379395,-2.011728048324585
1752098699025,-2.585139274597168,-9.298480987548828,-1.8489222526550293
1752098699092,-2.647388458251953,-9.083003044128418,-2.0835540294647217
1752098699158,-2.5899276733398438,-9.063849449157715,-1.9494787454605103
1752098699224,-2.9777884483337402,,
1752098699225,-2.4414870738983154,-8.97765827178955,-1.9255367517471313
1752098699293,-3.1741127967834473,-9.25059700012207,-1.9303251504898071
1752098699358,-3.154959201812744,,
1752098699359,,-9.269750595092773,-2.0165164470672607
1752098699424,-2.427121877670288,,
1752098699425,-2.9730000495910645,-9.188347816467285,-1.810615062713623
1752098699492,-3.1070752143859863,-9.006388664245605,-1.6956933736801147
1752098699558,-3.1022868156433105,-8.814851760864258,-1.79146146774292
1752098699625,-3.135805606842041,,
1752098699626,,-9.2841157913208,-2.2463598251342773
1752098699692,-2.451063871383667,-9.336788177490234,-1.7675193548202515
1752098699758,-2.652176856994629,,
1752098699759,-3.0639796257019043,-9.212289810180664,-1.6621745824813843
1752098699824,-2.9011738300323486,,
1752098699825,-2.7958290576934814,-8.9249849319458,-2.121861219406128
1752098699892,-3.312976598739624,,
1752098699893,,-9.006388664245605,-2.011728048324585
1752098699958,-3.2603042125701904,,-1.8920178413391113
1752098699959,,-9.078214645385742,
1752098700024,-3.0400376319885254,,
1752098700025,-3.265092611312866,-9.279327392578125,-2.0165164470672607
1752098700092,-2.8820202350616455,-9.039907455444336,-1.8201918601989746
1752098700158,-2.872443437576294,-9.116521835327148,-1.7244237661361694
1752098700224,-3.1262288093566895,,
1752098700225,-2.671330451965332,-8.89146614074707,-1.7244237661361694
1752098700292,-3.1932666301727295,,
1752098700293,-3.0352492332458496,-9.39903736114502,-2.07397723197937
1752098700358,-2.8820202350616455,,-1.710058569908142
1752098700359,,-9.542689323425293,-2.0404584407806396
1752098700424,-2.5133132934570312,,
1752098700425,,-9.097368240356445,-1.3317747116088867
1752098700492,-3.245939016342163,-9.298480987548828,-2.0835540294647217
1752098700558,-2.565985679626465,-9.456498146057129,-1.3174095153808594
1752098700625,-2.5037364959716797,-9.083003044128418,-2.0213048458099365
1752098700692,-3.4087445735931396,-9.365518569946289,-1.8920178413391113
1752098700758,-3.533243179321289,,
1752098700759,-3.514089584350586,-9.389460563659668,-2.121861219406128
1752098700825,-3.092710018157959,-9.212289810180664,-2.145803213119507
1752098700892,-2.5947160720825195,-10.237008094787598,-3.13700270652771
1752098700893,,-9.97364616394043,
1752098700958,-1.8237831592559814,-8.541913032531738,-2.873640537261963
1752098701025,-2.9682116508483887,,
1752098701026,-3.605069160461426,-8.27855110168457,-2.0213048458099365
1752098701092,-4.811747074127197,-8.182783126831055,-1.896806240081787
1752098701159,-2.273893117904663,,-0.6709750294685364
1752098701160,,-8.786121368408203,
1752098701226,-1.3736732006072998,-7.981669902801514,-0.25917232036590576
1752098701292,-2.9969420433044434,,
1752098701293,-4.620210647583008,-9.537900924682617,-1.7435773611068726
1752098701360,-4.543596267700195,,-5.234323501586914
1752098701361,,-10.308834075927734,-3.716399669647217
1752098701425,-3.092710018157959,-8.877100944519043,-1.3078327178955078
1752098701491,-3.662529945373535,,
1752098701492,-4.399944305419922,-8.331223487854004,-1.7387889623641968
1752098701558,-4.955399036407471,,
1752098701559,-5.10383939743042,-8.958504676818848,-0.8960300087928772
1752098701625,-2.2164323329925537,,
1752098701626,-1.392826795578003,-7.7230963706970215,-0.9295487999916077
1752098701692,-4.75428581237793,-10.701482772827148,-1.8728642463684082
1752098701759,-3.006518840789795,-8.843582153320312,-2.2607250213623047
1752098701826,-0.15741875767707825,,-0.1777694821357727
1752098701827,,-8.64246940612793,-0.31184476613998413
1752098701892,-3.245939016342163,,-0.10115502029657364
1752098701894,,-8.834005355834961,
1752098701958,-4.601057052612305,-9.528324127197266,0.9187749028205872
1752098702026,-5.343259811401367,-9.715071678161621,-1.0540473461151123
1752098702092,-3.250727415084839,-10.198700904846191,0.6362590789794922
1752098702158,-1.6849194765090942,-8.695141792297363,0.9666589498519897
1752098702225,-2.4223334789276123,-8.929773330688477,0.22445641458034515
1752098702226,,-7.900267124176025,
1752098702293,-3.734356164932251,-10.691905975341797,0.6075286865234375
1752098702358,-3.0352492332458496,-8.326435089111328,-1.446696400642395
1752098702425,-3.2842462062835693,,
1752098702426,-3.494935989379883,-9.145252227783203,1.4598644971847534
1752098702491,-3.006518840789795,,
1752098702492,-3.8492777347564697,-8.695141792297363,2.542043685913086
1752098702558,-5.2714338302612305,-11.118074417114258,-1.245583415031433
1752098702625,-1.8429367542266846,-7.124545574188232,-1.4371196031570435
1752098702691,-4.050390720367432,,
1752098702692,,-8.661623001098633,-1.8249802589416504
1752098702758,-4.246715068817139,-9.188347816467285,-2.4666264057159424
1752098702827,-1.3162124156951904,-7.866748332977295,-2.1697452068328857
1752098702891,-2.7096378803253174,,
1752098702892,-2.518101692199707,-9.269750595092773,-3.20404052734375
1752098702958,-2.8820202350616455,-9.748590469360352,-2.6342203617095947
1752098703026,-2.0679917335510254,-8.929773330688477,-0.7571662664413452
1752098703091,-2.781463861465454,,
1752098703092,,-9.020753860473633,-1.4945803880691528
1752098703159,-2.0009541511535645,-8.723872184753418,-1.1546037197113037
1752098703226,-2.78625226020813,-9.97364616394043,-2.519298791885376
1752098703293,-1.5221136808395386,-8.958504676818848,-1.7052701711654663
1752098703358,-2.896385431289673,-10.107721328735352,-0.7715315222740173
1752098703426,-2.7048494815826416,,-1.4227544069290161
1752098703427,,-9.571419715881348,
1752098703491,-0.3298012912273407,-8.771756172180176,-0.7475894689559937
1752098703559,-2.494159698486328,-10.035895347595215,-1.9877859354019165
1752098703625,-2.0009541511535645,,
1752098703626,-1.6992846727371216,-9.55705451965332,-1.1546037197113037
1752098703691,-2.3936030864715576,-9.331999778747559,-0.4124012291431427
1752098703692,,-9.504382133483887,
1752098703758,-1.3640964031219482,,
1752098703759,-1.9578584432601929,-9.978434562683105,-0.8481459617614746
1752098703826,-1.3593080043792725,,
1752098703827,,-9.083003044128418,-0.01496376097202301
1752098703891,-2.1924901008605957,,
1752098703892,,-9.9401273727417,-0.3214215636253357
1752098703958,-1.8429367542266846,-9.68155288696289,-0.6613982319831848
1752098704026,-2.182913303375244,,
1752098704027,-2.652176856994629,-9.59057331085205,-0.6422445774078369
1752098704091,-1.2108675241470337,,
1752098704092,-0.9475052952766418,-9.346364974975586,0.2148796021938324
1752098704159,-1.225232720375061,-9.8970308303833,-0.9151836037635803
1752098704226,-0.7032967209815979,-9.111733436584473,0.29149407148361206
1752098704293,-2.4127566814422607,,
1752098704294,-2.934692621231079,-10.366294860839844,-1.2551602125167847
1752098704359,-2.034472942352295,,-0.3884592354297638
1752098704360,,-9.073426246643066,
1752098704427,-2.810194253921509,-10.232219696044922,-0.11552023142576218
1752098704491,-0.27234044671058655,,
1752098704492,-0.6841431260108948,,
1752098704493,,-9.513958930969238,-0.4507084786891937
1752098704559,-1.8956091403961182,-9.935338973999023,-1.1976994276046753
1752098704625,-1.6657658815383911,,
1752098704626,,-9.437344551086426,-0.6613982319831848
1752098704691,-1.9865888357162476,,-0.5560533404350281
1752098704692,,-9.212289810180664,
1752098704758,-1.756745457649231,-9.513958930969238,-1.0684125423431396
1752098704825,-1.9674352407455444,,
1752098704826,-1.2300211191177368,-9.739013671875,-1.79146146774292
1752098704891,-2.494159698486328,,-0.5895721912384033
1752098704892,,-9.528324127197266,-0.28790274262428284
1752098704958,-1.2012907266616821,-9.34157657623291,-1.1354501247406006
1752098705026,-1.268328309059143,-9.49001693725586,-1.0301052331924438
1752098705091,-2.1350293159484863,,-1.2168530225753784
1752098705092,,-9.691129684448242,-1.4945803880691528
1752098705158,-2.1781249046325684,,-0.5656301379203796
1752098705159,,-9.245808601379395,
1752098705226,-1.7232266664505005,,
1752098705227,,-9.710283279418945,-0.8098387122154236
1752098705293,-2.3792378902435303,-9.715071678161621,-0.9630676507949829
1752098705359,-0.535702645778656,-9.667187690734863,-1.0492589473724365
1752098705426,-2.1972784996032715,-9.710283279418945,-0.6853402256965637
1752098705491,-2.2260091304779053,,-1.5855600833892822
1752098705492,,-9.61451530456543,
1752098705558,-2.757521867752075,-9.542689323425293,-0.943913996219635
1752098705627,-1.5269020795822144,,-0.44592007994651794
1752098705691,-0.27234044671058655,,
1752098705692,,-9.21707820892334,-0.5847837924957275
1752098705758,-2.4175450801849365,-10.428544044494629,-3.314173698425293
1752098705826,-2.623446464538574,-9.504382133483887,0.34416648745536804
1752098705891,-3.1453824043273926,,
1752098705892,,-9.849146842956543,-0.8337807655334473
1752098705959,0.048482585698366165,-8.82442855834961,0.12868833541870117
1752098705960,,-9.331999778747559,
1752098706026,-1.6753426790237427,-10.581772804260254,-2.4235305786132812
1752098706091,-1.9291280508041382,,
1752098706092,,-9.336788177490234,-1.245583415031433
1752098706158,-2.101510524749756,,-0.982221245765686
1752098706159,,-9.959280967712402,
1752098706226,-1.9051860570907593,,
1752098706227,,-9.15961742401123,-0.48901569843292236
1752098706293,-0.9091981053352356,-9.504382133483887,-1.106719732284546
1752098706359,-2.1254525184631348,-9.633668899536133,-2.203263998031616
1752098706425,-1.713649868965149,,
1752098706426,-2.2451627254486084,-9.624092102050781,0.4686649739742279
1752098706491,-1.3880383968353271,,
1752098706492,,-9.346364974975586,-0.7428010702133179
1752098706558,-0.26755204796791077,,
1752098706559,,-9.767744064331055,-1.8632874488830566
1752098706625,-2.1254525184631348,,
1752098706626,,-9.595361709594727,-0.6997054219245911
1752098706691,-1.833359956741333,,
1752098706692,,-9.408614158630371,-1.5855600833892822
1752098706759,-2.010530948638916,-10.275315284729004,-1.3078327178955078
1752098706826,-1.2587515115737915,-9.418190956115723,-0.900818407535553
1752098706891,-1.1534066200256348,,
1752098706892,-1.5029600858688354,-8.953716278076172,0.36810851097106934
1752098706958,-1.7375918626785278,,
1752098706959,,-10.169970512390137,-1.8441338539123535
1752098707027,-1.3593080043792725,,
1752098707028,-1.2012907266616821,-9.806051254272461,-1.4802151918411255
1752098707092,-2.3026235103607178,,
1752098707094,,-9.767744064331055,-0.31184476613998413
1752098707159,-2.182913303375244,,
1752098707160,-2.5133132934570312,-9.379883766174316,-1.1450269222259521
1752098707226,-0.9570821523666382,,
1752098707227,-1.4550760984420776,-9.365518569946289,-0.24001872539520264
1752098707293,-0.9858125448226929,-9.087791442871094,-0.6135141849517822
1752098707359,-1.268328309059143,-9.700706481933594,-1.5807716846466064
1752098707425,-2.8628666400909424,,
1752098707426,-1.9865888357162476,-10.088567733764648,-1.6286556720733643
1752098707491,-2.853289842605591,,
1752098707492,,-9.959280967712402,-0.900818407535553
1752098707558,-3.001730442047119,-9.533112525939941,-1.2599486112594604
1752098707625,-0.5452794432640076,,
1752098707626,,-9.322422981262207,-0.838569164276123
1752098707691,-1.1103110313415527,,
1752098707692,-1.632246971130371,-8.790909767150879,-0.383670836687088
1752098707759,-1.148618221282959,-9.873088836669922,-1.1019313335418701
1752098707824,-1.8285715579986572,,
1752098707825,-2.3552958965301514,-9.178771018981934,-1.5376760959625244
1752098707891,-2.3313539028167725,,
1752098707892,-2.0057425498962402,-10.04068374633789,-2.1362264156341553
1752098707959,-2.2020668983459473,-9.379883766174316,-1.1450269222259521
1752098708025,-2.498948097229004,-10.069414138793945,-0.9534908533096313
1752098708091,-0.6745663285255432,,
1752098708092,,-9.09257984161377,-1.1546037197113037
1752098708159,-1.6370353698730469,,-1.4227544069290161
1752098708160,,-9.384672164916992,
1752098708224,-1.2970588207244873,,
1752098708225,,-9.743802070617676,-1.1689690351486206
1752098708292,-2.0919337272644043,,
1752098708293,-1.1725603342056274,-9.911396026611328,-1.5711948871612549
1752098708360,-1.0911574363708496,-9.437344551086426,-0.900818407535553
1752098708424,-2.2164323329925537,,
1752098708425,-2.293046712875366,-9.873088836669922,-0.2256535142660141
1752098708491,-1.5652093887329102,,
1752098708492,,,-0.7284358739852905
1752098708493,,-9.336788177490234,0.3250128924846649
1752098708559,-2.101510524749756,,-0.8433575630187988
1752098708560,,-10.035895347595215,
1752098708625,-1.9434932470321655,,
1752098708626,,-9.901819229125977,-0.6853402256965637
1752098708691,-1.9003976583480835,,
1752098708692,,-9.365518569946289,0.5165489912033081
1752098708759,-2.4654293060302734,-9.638457298278809,-1.1210849285125732
1752098708824,-1.9482816457748413,,
1752098708825,-2.0679917335510254,-9.461286544799805,-1.0779893398284912
1752098708891,-2.891597032546997,,-0.1346738487482071
1752098708892,,-9.710283279418945,
1752098708959,-2.1781249046325684,,
1752098708960,-2.249951124191284,-9.49001693725586,-1.1019313335418701
1752098709025,-2.7910406589508057,,-0.4076128304004669
1752098709026,,-8.992023468017578,
1752098709091,-3.3512837886810303,-9.528324127197266,-1.896806240081787
1752098709159,-3.466205596923828,-9.485228538513184,-0.536899745464325
1752098709160,,-9.748590469360352,
1752098709225,-2.427121877670288,-9.37509536743164,-0.3214215636253357
1752098709292,-2.1541829109191895,,
1752098709293,-1.7375918626785278,-9.06863784790039,-1.4083890914916992
1752098709359,-2.9107506275177,,
1752098709360,,-9.52353572845459,-0.49380409717559814
1752098709425,-2.700061082839966,,
1752098709426,,-9.226655006408691,-1.0492589473724365
1752098709492,-2.7048494815826416,-9.461286544799805,-0.900818407535553
1752098709559,-2.7335798740386963,-9.130887031555176,-0.3597288131713867
1752098709625,-3.1070752143859863,,
1752098709626,-3.6385879516601562,-9.30805778503418,-0.8098387122154236
1752098709691,-3.1645359992980957,,
1752098709692,,-9.537900924682617,0.03770867735147476
1752098709759,-3.2986114025115967,-9.06863784790039,0.43993455171585083
1752098709825,-2.5707740783691406,,
1752098709826,,-9.820416450500488,-0.9774328470230103
1752098709891,-1.9482816457748413,,
1752098709892,,-8.982446670532227,-0.5129576921463013
1752098709959,-2.2260091304779053,,
1752098709960,-2.1254525184631348,,
1752098709961,,-9.882665634155273,-0.4794389009475708
1752098710025,-2.475006103515625,,0.20051439106464386
1752098710026,,-9.418190956115723,0.33937808871269226
1752098710091,-2.2691047191619873,,
1752098710092,-2.479794502258301,-9.212289810180664,0.21009120345115662
1752098710160,-2.4893712997436523,-9.34157657623291,-0.03411737456917763
1752098710226,-3.265092611312866,-9.422979354858398,-0.4076128304004669
1752098710292,-3.0639796257019043,,
1752098710293,-3.0639796257019043,-9.700706481933594,-0.16340427100658417
1752098710359,-2.8772318363189697,-9.245808601379395,0.23403321206569672
1752098710360,,-9.346364974975586,
1752098710425,-2.7479450702667236,,
1752098710426,,-9.15961742401123,0.34416648745536804
1752098710491,-2.7479450702667236,,
1752098710492,-2.470217704772949,-9.79647445678711,0.4016273319721222
1752098710558,-2.6426000595092773,,
1752098710559,-3.073556423187256,-9.140463829040527,0.3345896899700165
1752098710625,-3.60028076171875,-8.958504676818848,-0.46507367491722107
1752098710692,-3.2842462062835693,-9.509170532226562,0.18614917993545532
1752098710758,-2.7335798740386963,,
1752098710759,-2.891597032546997,-9.188347816467285,0.166995570063591
1752098710824,-3.2124202251434326,,
1752098710825,-3.178901195526123,-9.303269386291504,0.353743314743042
1752098710891,-2.934692621231079,,
1752098710892,-2.762310266494751,-9.327211380004883,0.13826514780521393
1752098710959,-2.805405855178833,,
1752098710960,,-9.442132949829102,0.06643909960985184
1752098711024,-3.154959201812744,-9.303269386291504,0.18136078119277954
1752098711025,,-9.384672164916992,
1752098711091,-2.810194253921509,,
1752098711092,-2.9442696571350098,-9.30805778503418,0.22445641458034515
1752098711159,-3.030460834503174,,
1752098711160,-2.9682116508483887,-9.293692588806152,0.41120412945747375
1752098711225,-3.044826030731201,-9.346364974975586,0.20530278980731964
1752098711291,-2.719214677810669,,
1752098711292,-2.8006174564361572,-9.413402557373047,0.15263035893440247
1752098711359,-2.7670986652374268,,
1752098711360,,-9.317634582519531,0.26755204796791077
1752098711424,-2.9011738300323486,-9.43255615234375,-0.03411737456917763
1752098711491,-2.738368272781372,-9.475651741027832,-0.048482585698366165
1752098711558,-2.9011738300323486,-9.336788177490234,0.4016273319721222
1752098711624,-3.3177649974823,-9.485228538513184,0.2388216257095337
1752098711691,-3.0400376319885254,-9.269750595092773,0.24361002445220947
1752098711758,-2.805405855178833,-9.2841157913208,0.4255693554878235
1752098711824,-3.073556423187256,-9.30805778503418,0.3106476664543152
1752098711891,-2.7527334690093994,-9.427767753601074,0.21009120345115662
1752098711958,-2.8868086338043213,,
1752098711959,-2.963423252105713,-9.269750595092773,0.17178396880626678
1752098712024,-2.78625226020813,,0.25318682193756104
1752098712025,,-9.485228538513184,0.43514615297317505
1752098712091,-3.073556423187256,-9.169194221496582,0.3489548861980438
1752098712158,-2.8580782413482666,-9.451709747314453,0.34416648745536804
1752098712225,-2.580350875854492,-9.5809965133667,0.3776853084564209
1752098712291,-2.4223334789276123,-9.494805335998535,-0.0628477931022644
1752098712358,-2.5468320846557617,,
1752098712359,,-9.79647445678711,-5.985504249110818E-4
1752098712425,-2.446275472640991,,0.2579752206802368
1752098712426,,-9.638457298278809,
1752098712491,-2.2212207317352295,,
1752098712492,,-9.408614158630371,0.2579752206802368
1752098712557,-2.0440497398376465,-9.92097282409668,0.10953472554683685
1752098712558,,-10.174758911132812,
1752098712625,-1.5029600858688354,,-0.4985924959182739
1752098712626,,-9.346364974975586,-0.7523778676986694
1752098712692,-1.5173252820968628,,
1752098712693,,-8.326435089111328,-0.5704185366630554
1752098712758,-2.407968282699585,,2.8772318363189697
1752098712759,,-9.782109260559082,
1752098712825,-5.304952621459961,,
1752098712826,-6.966528415679932,-8.6089506149292,-0.41718965768814087
1752098712891,-6.717531204223633,,
1752098712892,,-8.929773330688477,-0.6039373874664307
1752098712959,-4.466981887817383,-9.667187690734863,0.5309142470359802
1752098713025,-2.6809072494506836,,
1752098713026,,-9.00160026550293,-0.9487023949623108
1752098713092,-0.8373720645904541,-9.518747329711914,-1.2551602125167847
1752098713159,-1.5221136808395386,-9.1260986328125,0.4878185987472534
1752098713225,-4.304176330566406,-10.576984405517578,-1.5185223817825317
1752098713226,,-8.790909767150879,
1752098713292,-2.7718870639801025,-9.413402557373047,-1.3509283065795898
1752098713358,-2.1924901008605957,,
1752098713359,,-9.37509536743164,-0.07242459803819656
1752098713426,-1.6035165786743164,-9.55705451965332,-1.1450269222259521
1752098713427,,-10.102932929992676,
1752098713491,-2.0823569297790527,,
1752098713492,-2.7766754627227783,-9.212289810180664,-0.5416881442070007
1752098713558,-1.7471686601638794,,
1752098713559,-1.1342530250549316,-9.413402557373047,0.08080431073904037
1752098713625,-2.4175450801849365,-9.925761222839355,-1.5185223817825317
1752098713692,-3.207631826400757,,-0.9870096445083618
1752098713693,,-10.088567733764648,
1752098713759,-1.7280150651931763,-9.083003044128418,0.961870551109314
1752098713825,-1.4742296934127808,-9.576208114624023,1.028908133506775
1752098713891,-1.6083049774169922,,
1752098713892,,-9.499593734741211,-0.4554968774318695
1752098713957,-2.1924901008605957,-9.59057331085205,-0.6135141849517822
1752098714026,-1.7806875705718994,-9.734225273132324,0.5452794432640076
1752098714091,-1.4071919918060303,-9.509170532226562,0.16220717132091522
1752098714158,-1.9674352407455444,-9.600150108337402,0.21009120345115662
1752098714225,-1.713649868965149,-9.513958930969238,-0.9247604012489319
1752098714291,-0.8277952671051025,,-0.10115502029657364
1752098714292,,-10.00716495513916,
1752098714358,-1.876455545425415,-9.245808601379395,-0.2017114907503128
1752098714425,-1.2922704219818115,,
1752098714426,,-9.43255615234375,0.406415730714798
1752098714491,-1.3114240169525146,,
1752098714492,-0.10953472554683685,-10.193912506103516,-0.9343371987342834
1752098714557,-1.426345705986023,,
1752098714558,,-9.882665634155273,-0.7332242727279663
1752098714625,-0.7032967209815979,-9.77253246307373,0.7990648150444031
1752098714692,1.2072762250900269,-8.508394241333008,0.9906009435653687
1752098714758,-0.5979518890380859,-10.275315284729004,-1.9303251504898071
1752098714825,-1.0432734489440918,,
1752098714826,-0.36332011222839355,-9.9401273727417,-1.2120646238327026
1752098714892,-0.760757565498352,-10.97921085357666,0.18136078119277954
1752098714958,0.718859076499939,,
1752098714959,0.048482585698366165,-9.255385398864746,0.08080431073904037
1752098715026,0.3166331648826599,-9.260173797607422,-0.5033808946609497
1752098715093,0.3693056106567383,-9.494805335998535,-0.5560533404350281
1752098715159,-0.6314706802368164,-10.160393714904785,-1.1306617259979248
1752098715226,-0.6649895310401917,,
1752098715227,,-9.595361709594727,-0.3932476341724396
1752098715292,-0.6841431260108948,-10.021530151367188,-0.5943605899810791
1752098715359,-0.2148796021938324,-9.767744064331055,-0.9582792520523071
1752098715426,-0.8038532137870789,-9.825204849243164,-1.911171555519104
1752098715492,-0.33937808871269226,,
1752098715493,-0.7080851793289185,-9.686341285705566,0.9044097065925598
1752098715560,-0.9953893423080444,-9.509170532226562,-1.6717513799667358
1752098715627,-0.7703344225883484,-10.150816917419434,-0.8098387122154236
1752098715692,-1.0432734489440918,,
1752098715693,,-8.695141792297363,0.18614917993545532
1752098715760,-0.5692214369773865,,-0.01496376097202301
1752098715826,-0.6745663285255432,,
1752098715827,,-8.992023468017578,0.10953472554683685
1752098715891,-3.533243179321289,,
1752098715892,-3.265092611312866,-10.165182113647461,-1.2743138074874878
1752098715958,-2.6426000595092773,-10.179547309875488,-0.7811083197593689
1752098716042,-0.29628247022628784,,
1752098716043,0.42197805643081665,-7.866748332977295,-0.23523031175136566
1752098716091,-4.112639904022217,-10.213066101074219,-1.4323312044143677
1752098716157,-2.4175450801849365,,
1752098716158,,-9.43255615234375,-0.6949170231819153
1752098716225,-2.2403743267059326,,
1752098716226,-4.270657062530518,-9.504382133483887,-0.9630676507949829
1752098716292,-1.6370353698730469,-8.7669677734375,-1.4036006927490234
1752098716358,-4.409521102905273,,-0.5656301379203796
1752098716359,,-9.154829025268555,
1752098716426,-4.399944305419922,,
1752098716428,-4.265868663787842,-9.221866607666016,0.2579752206802368
1752098716491,-3.250727415084839,-9.011177062988281,-0.8816647529602051
1752098716561,-3.202843427658081,-10.13166332244873,0.5069721937179565
1752098716625,-3.7056257724761963,-9.30805778503418,0.6171054840087891
1752098716626,,-9.140463829040527,
1752098716691,-3.8109705448150635,-9.106945037841797,0.20051439106464386
1752098716757,-4.443039894104004,,-0.14903905987739563
1752098716758,,-8.747814178466797,-0.3357867896556854
1752098716825,-3.777451753616333,,
1752098716826,-3.5667619705200195,-9.178771018981934,-0.6901286244392395
1752098716899,-2.8820202350616455,,
1752098716901,-2.7958290576934814,-9.221866607666016,-0.2974795699119568
1752098716958,-2.9538464546203613,-9.173982620239258,0.29628247022628784
1752098717026,-4.083909511566162,-9.140463829040527,0.43514615297317505
1752098717091,-3.1693243980407715,,0.6745663285255432
1752098717092,,-9.77253246307373,
1752098717160,-2.6809072494506836,,
1752098717161,-2.4654293060302734,-8.455721855163574,0.09038111567497253
1752098717225,-1.6944962739944458,-9.79647445678711,-3.2758665084838867
1752098717291,-2.6569652557373047,-9.528324127197266,-2.3133974075317383
1752098717360,-2.0488381385803223,,-3.7451300621032715
1752098717361,,-9.451709747314453,
1752098717424,-3.403956174850464,-8.920196533203125,-1.0636241436004639
1752098717491,-3.0639796257019043,-8.283339500427246,-1.8201918601989746
1752098717559,-3.7678749561309814,-9.499593734741211,-0.5512649416923523
1752098717624,-0.899621307849884,-9.039907455444336,-4.420294761657715
1752098717690,-3.2363622188568115,-9.600150108337402,-3.2327709197998047
1752098717691,,-10.49558162689209,
1752098717758,-4.208407878875732,-9.288904190063477,-0.7284358739852905
1752098717825,-3.9641995429992676,-8.283339500427246,0.36810851097106934
1752098717893,-4.1844658851623535,-9.21707820892334,-1.3126211166381836
1752098717959,-1.7998411655426025,-10.294468879699707,-1.389235496520996
1752098718026,-3.135805606842041,,
1752098718028,-3.7726633548736572,,
1752098718029,-3.954622745513916,,
1752098718030,,-9.394248962402344,-1.1162965297698975
1752098718094,-3.7918169498443604,,
1752098718098,-3.423109769821167,,
1752098718099,-3.6385879516601562,,
1752098718101,,-9.226655006408691,-0.1586158573627472
1752098718159,-3.9689879417419434,-8.51797103881836,-0.1346738487482071
1752098718224,-3.466205596923828,,
1752098718226,-3.1022868156433105,,-0.16819266974925995
1752098718231,,-9.078214645385742,
1752098718291,-2.8006174564361572,-9.039907455444336,0.3106476664543152
1752098718358,-3.399167776107788,-9.509170532226562,-1.2407950162887573
1752098718424,-2.455852508544922,,-0.6805518269538879
1752098718425,,-8.939350128173828,
1752098718496,-4.160523891448975,,
1752098718498,-4.198831081390381,,0.1909375786781311
1752098718500,,-8.805274963378906,
1752098718560,-3.2986114025115967,-9.154829025268555,-0.9630676507949829
1752098718624,-3.4853591918945312,,
1752098718625,-2.690484046936035,-8.374319076538086,-1.4419080018997192
1752098718692,-3.557185173034668,-9.518747329711914,-1.8297686576843262
1752098718759,-1.9291280508041382,-9.777320861816406,-1.7483657598495483
1752098718825,-2.9011738300323486,-9.015965461730957,-2.0452468395233154
1752098718891,-2.316988706588745,,
1752098718892,,-9.384672164916992,-2.121861219406128
1752098718959,-2.182913303375244,-9.011177062988281,-1.6478092670440674
1752098719026,-2.891597032546997,-8.992023468017578,-1.2791022062301636
1752098719091,-3.0831332206726074,-9.595361709594727,-1.7627309560775757
1752098719159,-3.9211037158966064,-9.255385398864746,-1.2934675216674805
1752098719225,-3.7439329624176025,-8.412626266479492,-1.1162965297698975
1752098719294,-3.312976598739624,,
1752098719295,-3.997718334197998,-8.80048656463623,-1.3557167053222656
1752098719359,-3.935469150543213,-9.116521835327148,-1.4419080018997192
1752098719425,-3.4135329723358154,-9.365518569946289,-1.7292121648788452
1752098719491,-2.963423252105713,,
1752098719492,,-9.097368240356445,-1.3174095153808594
1752098719558,-2.6809072494506836,-9.255385398864746,-1.7627309560775757
1752098719626,-2.781463861465454,-9.303269386291504,-1.346139907836914
1752098719691,-2.360084295272827,,
1752098719692,-2.18770170211792,-9.298480987548828,-1.2647370100021362
1752098719759,-2.431910276412964,-9.327211380004883,-1.690904974937439
1752098719825,-2.633023262023926,-9.336788177490234,-1.7579425573349
1752098719893,-2.719214677810669,-9.188347816467285,-1.853710651397705
1752098719960,-3.0544028282165527,,
1752098719961,-3.044826030731201,-9.298480987548828,-2.0021512508392334
1752098720027,-3.3081881999969482,-9.015965461730957,-1.6382324695587158
1752098720092,-3.1980550289154053,-8.862735748291016,-1.79146146774292
1752098720159,-3.5715503692626953,,
1752098720160,-3.470993995666504,-8.9680814743042,-1.8632874488830566
1752098720226,-3.2746694087982178,-9.25059700012207,-2.2224178314208984
1752098720293,-3.2794578075408936,-9.150040626525879,-1.7723077535629272
1752098720360,-3.1741127967834473,-8.781332969665527,-2.1697452068328857
1752098720425,-3.0113072395324707,,-1.7387889623641968
1752098720426,,-9.255385398864746,-1.9063831567764282
1752098720491,-2.8197710514068604,,
1752098720492,-2.6665420532226562,-9.030330657958984,-1.6621745824813843
1752098720559,-2.7958290576934814,-9.015965461730957,-2.2703018188476562
1752098720625,-2.9011738300323486,-9.585784912109375,-2.337339401245117
1752098720692,-2.3457190990448,-8.920196533203125,-1.978209137916565
1752098720759,-3.135805606842041,-9.245808601379395,-2.0883424282073975
1752098720826,-3.092710018157959,-9.212289810180664,-2.1074960231781006
1752098720892,-1.8046295642852783,-9.303269386291504,-2.3708581924438477
1752098720959,-1.3593080043792725,,
1752098720960,,-9.020753860473633,-2.648585557937622
1752098721026,-3.1645359992980957,-9.504382133483887,-1.6813281774520874
1752098721092,-4.8309006690979,-8.058284759521484,-1.5616180896759033
1752098721160,-4.730343818664551,-8.872312545776367,-1.202487826347351
1752098721225,-5.032013416290283,,
1752098721226,-5.060743808746338,-8.450933456420898,-0.9534908533096313
1752098721292,-3.7008373737335205,-9.346364974975586,-2.1553800106048584
1752098721359,-3.887584924697876,,
1752098721360,-3.087921619415283,-8.561066627502441,-1.7866730690002441
1752098721426,-4.1413702964782715,-8.719083786010742,-1.4658499956130981
1752098721492,-2.987365245819092,,
1752098721493,-2.010530948638916,-9.968857765197754,-1.6286556720733643
1752098721558,-0.7894880175590515,,-3.180098295211792
1752098721559,,-10.22264289855957,
1752098721626,0.28311434388160706,,
1752098721627,-0.05686229094862938,-9.09257984161377,-2.236783027648926
1752098721692,-2.1254525184631348,,
1752098721693,-2.7718870639801025,-9.868300437927246,-1.2838906049728394
1752098721761,-4.438251495361328,-8.58500862121582,-2.801814556121826
1752098721825,-4.57232666015625,,
1752098721826,-4.69682502746582,-10.663175582885742,-4.314949989318848
1752098721892,-3.4805707931518555,-8.896254539489746,0.29149407148361206
1752098721959,-3.648164749145508,,
1752098721960,,-9.135675430297852,-3.0555999279022217
1752098722026,-1.0672154426574707,-10.428544044494629,-2.23199462890625
1752098722093,0.058059390634298325,-9.485228538513184,-1.4802151918411255
1752098722160,-3.2172086238861084,-9.083003044128418,-1.5424644947052002
1752098722225,-4.13179349899292,,-1.106719732284546
1752098722226,,-8.690353393554688,
1752098722292,-2.676118850708008,-9.116521835327148,-0.4602852761745453
1752098722359,-3.7870285511016846,,
1752098722360,-6.9904704093933105,-9.015965461730957,-2.5336639881134033
1752098722425,-2.9682116508483887,,
1752098722426,,-10.366294860839844,1.6801310777664185
1752098722492,-2.0679917335510254,-8.580220222473145,-3.539228677749634
1752098722558,1.5089455842971802,,
1752098722559,,-8.85794734954834,-2.648585557937622
1752098722625,-3.782240152359009,,
1752098722626,-4.16531229019165,-9.106945037841797,-0.21128830313682556
1752098722692,-4.701613426208496,,
1752098722693,,-9.384672164916992,-2.380434989929199
1752098722760,-1.8956091403961182,-9.346364974975586,-1.0013748407363892
1752098722825,-3.5859155654907227,,
1752098722826,,-9.260173797607422,-2.9741971492767334
1752098722894,-2.958634853363037,-8.910619735717773,-0.5847837924957275
1752098722959,-3.959411144256592,-9.279327392578125,-1.9255367517471313
1752098723027,-3.8540661334991455,-8.489240646362305,-1.0636241436004639
1752098723093,-4.294599533081055,,
1752098723094,,-8.881889343261719,-1.5376760959625244
1752098723159,-3.140594005584717,-8.89146614074707,-1.4131776094436646
1752098723225,-4.313753128051758,-8.647257804870605,-1.4993687868118286
1752098723292,-3.3464953899383545,-8.685564994812012,-0.9247604012489319
1752098723358,-3.9019501209259033,,
1752098723360,-3.6816837787628174,,
1752098723361,,-8.89146614074707,-1.0875661373138428
1752098723425,-2.652176856994629,-9.384672164916992,-2.3277626037597656
1752098723492,-2.714426279067993,,
1752098723494,-2.5564088821411133,-9.762955665588379,-1.2982559204101562
1752098723559,-3.7391445636749268,-9.806051254272461,-0.6039373874664307
1752098723560,,-8.51797103881836,
1752098723625,-3.5188779830932617,-8.89146614074707,-1.7292121648788452
1752098723693,-3.0208840370178223,,
1752098723695,-2.7670986652374268,,
1752098723697,-3.001730442047119,,
1752098723698,-3.533243179321289,-9.241020202636719,-1.8632874488830566
1752098723759,-3.624222755432129,-8.719083786010742,-2.1074960231781006
1752098723827,-4.6920366287231445,-10.198700904846191,-3.3476924896240234
1752098723893,-4.313753128051758,,
1752098723894,-4.500500679016113,,-2.720411777496338
1752098723895,,-9.801262855529785,
1752098723958,-4.423886299133301,-8.656834602355957,-0.7092822790145874
1752098724026,-2.805405855178833,-6.827664852142334,-1.9494787454605103
1752098724100,-1.2587515115737915,-7.866748332977295,-0.8720879554748535
1752098724163,-5.170876979827881,-7.450157165527344,-0.8720879554748535
1752098724229,-7.737461566925049,,
1752098724230,-8.359953880310059,-8.470087051391602,-0.8146271109580994
1752098724297,-6.4398040771484375,,
1752098724298,,-8.09659194946289,-3.8313212394714355
1752098724363,-4.601057052612305,,-1.0492589473724365
1752098724364,,-8.685564994812012,0.0520738884806633
1752098724430,-3.494935989379883,-6.233902454376221,0.25318682193756104
1752098724475,-5.285799026489258,-9.743802070617676,1.3832499980926514
1752098724539,-4.016871929168701,,
1752098724540,,-10.059837341308594,-0.058059390634298325
1752098724605,-6.219537258148193,-9.360730171203613,-3.251924514770508
1752098724672,-2.4606409072875977,-8.939350128173828,1.3401544094085693
1752098724738,-7.498041152954102,-8.240243911743164,-0.23523031175136566
1752098724805,-3.2603042125701904,-8.738237380981445,0.27234044671058655
1752098724874,-4.787805080413818,,
1752098724877,,-8.412626266479492,-0.04369417950510979
1752098724938,-4.835689067840576,-8.479663848876953,0.406415730714798
1752098725006,-4.624999046325684,-8.168417930603027,0.023343466222286224
1752098725075,-4.735132217407227,-8.594585418701172,0.10474632680416107
1752098725140,-4.768651008605957,,
1752098725143,-4.763862609863281,,-0.09157821536064148
1752098725144,,-8.599373817443848,
1752098725205,-5.089474201202393,-8.752602577209473,-0.24001872539520264
1752098725273,-4.514865875244141,-8.455721855163574,0.08559270948171616
1752098725323,-4.941033840179443,,
1752098725324,-4.845265865325928,-8.316858291625977,0.22445641458034515
1752098725387,-4.79738187789917,-8.474875450134277,0.3106476664543152
1752098725453,-5.0032830238342285,,
1752098725454,,-8.283339500427246,0.13826514780521393
1752098725520,-5.1565117835998535,,
1752098725521,-5.027225017547607,-8.656834602355957,-0.14903905987739563
1752098725586,-4.950610637664795,-8.350377082824707,0.12389993667602539
1752098725653,-4.864419460296631,,
1752098725655,-4.859631061553955,-8.647257804870605,-0.14903905987739563
1752098725718,-4.835689067840576,-8.206725120544434,0.36332011222839355
1752098725785,-4.912303447723389,-8.42699146270752,-0.07242459803819656
1752098725853,-5.448604583740234,,
1752098725854,-5.290587425231934,,
1752098725857,,,0.5021837949752808
1752098725918,-5.151723384857178,,
1752098725920,-5.19481897354126,-8.786121368408203,-0.2783259451389313
1752098725985,-4.854842662811279,-8.273762702941895,0.2819172441959381
1752098726052,-4.653729438781738,-8.680776596069336,-0.3405751883983612
1752098726118,-4.969764232635498,-8.30249309539795,0.4734533727169037
1752098726185,-4.8500542640686035,-8.541913032531738,-0.2064998894929886
1752098726252,-5.13735818862915,-8.264185905456543,0.262763649225235
1752098726318,-5.041590213775635,,
1752098726319,-4.97934103012085,-8.541913032531738,-0.07242459803819656
1752098726385,-4.787805080413818,-8.589797019958496,-0.0628477931022644
1752098726453,-4.8069586753845215,-8.441356658935547,0.09038111567497253
1752098726519,-4.912303447723389,-8.374319076538086,0.13826514780521393
1752098726624,-5.079897403717041,,
1752098726625,,-8.388684272766113,0.04728548228740692
1752098726630,-5.079897403717041,-8.470087051391602,0.09038111567497253
1752098726693,-4.864419460296631,-8.470087051391602,0.04728548228740692
1752098726760,-4.735132217407227,,-0.02454056777060032
1752098726761,,-8.570643424987793,-0.053270988166332245
1752098726826,-4.792593479156494,-8.61852741241455,0.12389993667602539
1752098726895,-4.883573055267334,,
1752098726896,,-8.398261070251465,0.013766659423708916
1752098726960,-4.902726650238037,-8.412626266479492,0.15741875767707825
1752098727026,-4.835689067840576,-8.431779861450195,0.05686229094862938
1752098727094,-4.92188024520874,-8.417414665222168,-0.04369417950510979
1752098727160,-5.108627796173096,-8.49402904510498,0.013766659423708916
1752098727226,-5.099050998687744,-8.436568260192871,-0.03411737456917763
1752098727294,-5.175665378570557,-8.364742279052734,0.10474632680416107
1752098727360,-4.950610637664795,,
1752098727362,-4.79738187789917,-8.359953880310059,0.12389993667602539
1752098727426,-4.859631061553955,-8.393472671508789,0.14784196019172668
1752098727494,-4.92188024520874,-8.374319076538086,0.27712884545326233
1752098727561,-4.950610637664795,,
1752098727562,,-8.508394241333008,0.028131870552897453
1752098727627,-4.864419460296631,,0.05686229094862938
1752098727628,,-8.537124633789062,0.06165069341659546
1752098727695,-4.672883033752441,-8.762179374694824,-0.0628477931022644
1752098727761,-4.730343818664551,-8.40304946899414,0.21009120345115662
1752098727826,-5.099050998687744,-8.259397506713867,0.4638765752315521
1752098727895,-5.108627796173096,-8.039131164550781,0.06165069341659546
1752098727960,-5.54437255859375,-8.853158950805664,0.36810851097106934
1752098728025,-4.476558685302734,,
1752098728026,-4.232349872589111,-8.388684272766113,-0.12509703636169434
1752098728093,-4.170100688934326,,
1752098728094,,-8.513182640075684,0.09038111567497253
1752098728161,-4.912303447723389,,0.13347674906253815
1752098728162,,-8.388684272766113,
1752098728227,-5.079897403717041,,
1752098728228,,-8.862735748291016,-0.30705636739730835
1752098728293,-4.653729438781738,,0.013766659423708916
1752098728294,,-8.455721855163574,
1752098728360,-4.854842662811279,,
1752098728361,-4.9601874351501465,-8.374319076538086,-0.0867898091673851
1752098728427,-5.218760967254639,-8.527547836303711,0.33937808871269226
1752098728428,,-8.953716278076172,
1752098728493,-4.146158695220947,-8.776544570922852,-0.1777694821357727
1752098728562,-4.088697910308838,-8.757390975952148,-0.2064998894929886
1752098728627,-4.969764232635498,,
1752098728628,,-7.818864345550537,0.6266822814941406
1752098728693,-5.247491359710693,,
1752098728694,,-8.321646690368652,-0.07242459803819656
1752098728760,-5.745485305786133,-9.102156639099121,-0.3166331648826599
1752098728828,-3.911526918411255,,
1752098728829,-3.423109769821167,-8.288127899169922,-0.1538274586200714
1752098728894,-4.39036750793457,-8.292916297912598,0.08080431073904037
1752098728961,-6.051943302154541,,0.6697779297828674
1752098728962,,-8.36953067779541,
1752098729028,-5.922656536102295,-8.259397506713867,-0.5752069354057312
1752098729095,-5.017648220062256,-8.55148983001709,-0.2064998894929886
1752098729163,-5.190030574798584,-8.46051025390625,0.24361002445220947
1752098729227,-4.466981887817383,-8.82442855834961,0.15741875767707825
1752098729293,-3.906738519668579,-8.087015151977539,-0.23044191300868988
1752098729360,-5.185242176055908,-8.704718589782715,0.20051439106464386
1752098729427,-5.5778913497924805,-8.33601188659668,-0.25917232036590576
1752098729493,-4.653729438781738,-8.85794734954834,-0.5895721912384033
1752098729494,,-8.474875450134277,
1752098729561,-4.443039894104004,,0.04249707981944084
1752098729562,,-8.407837867736816,
1752098729627,-5.0703206062316895,-8.326435089111328,0.4207809567451477
1752098729693,-4.869207859039307,,
1752098729694,,-8.297704696655273,-0.048482585698366165
1752098729760,-5.204395771026611,-9.073426246643066,-0.292691171169281
1752098729827,-4.380790710449219,-8.158841133117676,0.18614917993545532
1752098729893,-4.897938251495361,-8.149264335632324,0.29628247022628784
1752098729960,-4.955399036407471,,0.4016273319721222
1752098729961,,-8.393472671508789,
1752098730026,-4.744709014892578,-8.992023468017578,-0.6661866307258606
1752098730093,-4.835689067840576,-8.637681007385254,-0.03411737456917763
1752098730160,-4.69682502746582,-8.49402904510498,0.21966800093650818
1752098730227,-4.553173065185547,-8.168417930603027,0.15263035893440247
1752098730293,-5.625775337219238,,0.262763649225235
1752098730294,,-8.345588684082031,
1752098730360,-5.1565117835998535,,
1752098730361,,-8.82442855834961,-0.2783259451389313
1752098730427,-3.7247793674468994,-9.21707820892334,-0.42676645517349243
1752098730494,-4.687248229980469,-7.814075946807861,-0.4794389009475708
1752098730562,-6.339247703552246,-8.297704696655273,0.6314706802368164
1752098730627,-5.017648220062256,,
1752098730628,,-8.541913032531738,0.3489548861980438
1752098730694,-3.025672435760498,-9.09257984161377,-1.2312182188034058
1752098730760,-5.960963726043701,-8.479663848876953,0.5452794432640076
1752098730828,-5.616198539733887,-8.019977569580078,0.33937808871269226
1752098730893,-3.8540661334991455,-8.795698165893555,-0.1777694821357727
1752098730960,-4.653729438781738,,
1752098730961,-4.045602321624756,-8.695141792297363,-0.03890577703714371
1752098731027,-4.347271919250488,-8.455721855163574,-0.07721300423145294
1752098731093,-5.01285982131958,-7.976881504058838,0.6889315247535706
1752098731159,-5.443816184997559,,
1752098731160,-5.261856555938721,-8.872312545776367,-0.6661866307258606
1752098731226,-3.935469150543213,,
1752098731227,-3.777451753616333,-8.992023468017578,-0.1825578808784485
1752098731293,-4.974552631378174,-8.134899139404297,0.38726213574409485
1752098731359,-5.0032830238342285,,
1752098731361,-5.055955410003662,-8.249820709228516,0.6218938827514648
1752098731426,-4.720767021179199,-8.632892608642578,-0.09636662155389786
1752098731492,-4.6920366287231445,-9.020753860473633,-0.23523031175136566
1752098731560,-4.787805080413818,-8.814851760864258,0.32022446393966675
1752098731626,-4.524442672729492,-7.814075946807861,0.31543606519699097
1752098731694,-5.348048210144043,,
1752098731696,-5.276222229003906,,
1752098731697,-5.309741020202637,-8.206725120544434,0.6027402877807617
1752098731698,,-8.541913032531738,
1752098731759,-5.6209869384765625,-9.006388664245605,-0.2495955228805542
1752098731827,-4.289810657501221,-8.97765827178955,0.06643909960985184
1752098731893,-4.376002311706543,,
1752098731894,-4.864419460296631,-8.043919563293457,0.43514615297317505
1752098731960,-5.3576250076293945,,0.8038532137870789
1752098731961,,-8.40304946899414,
1752098732028,-5.429450988769531,-8.561066627502441,-0.1825578808784485
1752098732093,-4.8069586753845215,,
1752098732094,,-8.714295387268066,-0.03411737456917763
1752098732160,-4.821323871612549,-7.780557155609131,0.823006808757782
1752098732227,-4.97934103012085,,
1752098732228,,-8.398261070251465,0.6506243348121643
1752098732293,-4.711190223693848,,
1752098732294,-5.261856555938721,-8.474875450134277,-0.3932476341724396
1752098732361,-4.380790710449219,-8.992023468017578,-0.7284358739852905
1752098732362,,-9.030330657958984,
1752098732428,-5.4677581787109375,-8.690353393554688,-0.1586158573627472
1752098732495,-4.529231071472168,-8.359953880310059,0.13347674906253815
1752098732561,-4.9601874351501465,,-0.11552023142576218
1752098732562,,-8.393472671508789,
1752098732628,-4.529231071472168,-8.345588684082031,-0.30226796865463257
1752098732693,-6.497264862060547,,-0.5129576921463013
1752098732694,,-8.905831336975098,
1752098732760,-4.941033840179443,,-3.8073792457580566
1752098732761,,-7.478887557983398,
1752098732827,-2.652176856994629,,8.776544570922852
1752098732828,,-7.507617950439453,
1752098732893,-2.4845829010009766,-6.10940408706665,1.301847219467163
1752098732960,-3.092710018157959,-8.307281494140625,-2.562394380569458
1752098733027,-2.896385431289673,-8.570643424987793,-0.8864531517028809
1752098733094,-6.147711277008057,,-4.171298027038574
1752098733095,,-8.934561729431152,
1752098733161,-3.6385879516601562,-7.2107367515563965,0.11432313174009323
1752098733227,-3.399167776107788,-7.890690326690674,-1.0540473461151123
1752098733293,-4.203619480133057,,
1752098733294,-3.9689879417419434,-7.866748332977295,-0.8194155097007751
1752098733360,-3.336918592453003,-9.245808601379395,0.7224503755569458
1752098733427,-2.6665420532226562,-10.988787651062012,-3.400364875793457
1752098733493,-1.3545196056365967,-10.375871658325195,-0.21128830313682556
1752098733562,-2.9059622287750244,-13.828310012817383,-1.2934675216674805
1752098733627,-4.136581897735596,-8.743025779724121,-3.3668460845947266
1752098733628,,-5.980117321014404,
1752098733694,-4.150947093963623,-7.828441143035889,2.6665420532226562
1752098733760,-4.821323871612549,-11.0701904296875,0.961870551109314
1752098733871,-3.605069160461426,-8.019977569580078,-1.0971429347991943
1752098733874,-4.083909511566162,-9.212289810180664,-1.1450269222259521
1752098733938,-3.380014181137085,-8.589797019958496,0.9091981053352356
1752098734007,-3.044826030731201,-8.814851760864258,0.9091981053352356
1752098734072,-3.140594005584717,-9.279327392578125,-0.16819266974925995
1752098734138,-3.2315738201141357,-9.322422981262207,-0.4507084786891937
1752098734207,-2.757521867752075,-9.676764488220215,0.2148796021938324
1752098734272,-3.360860586166382,,
1752098734273,-3.5188779830932617,-9.370306968688965,0.5835866928100586
1752098734339,-3.825335741043091,,
1752098734340,-3.930680751800537,-9.054272651672363,0.3489548861980438
1752098734406,-3.8109705448150635,-9.135675430297852,-0.21607670187950134
1752098734471,-3.183689594268799,,
1752098734472,-3.22678542137146,-9.164405822753906,0.24361002445220947
1752098734539,-3.025672435760498,,
1752098734540,-2.6856956481933594,-9.77253246307373,0.26755204796791077
1752098734606,-2.62823486328125,,
1752098734607,-2.316988706588745,-9.604938507080078,-0.1107318252325058
1752098734671,-2.316988706588745,,
1752098734672,-2.565985679626465,-9.30805778503418,0.5835866928100586
1752098734739,-3.049614429473877,,
1752098734740,,-9.18355941772461,-0.6613982319831848
1752098734806,-3.7199909687042236,-9.135675430297852,-0.4411316514015198
1752098734871,-2.7287914752960205,,
1752098734872,-2.62823486328125,-9.480440139770508,-1.082777738571167
1752098734938,-2.6186580657958984,-8.9680814743042,-0.35494041442871094
1752098735006,-3.15974760055542,-9.633668899536133,-1.6095020771026611
1752098735071,-3.1932666301727295,,
1752098735072,,-9.858723640441895,-1.5807716846466064
1752098735138,-3.2986114025115967,-10.46206283569336,-4.468178749084473
1752098735206,-2.0440497398376465,-9.786897659301758,-1.8297686576843262
1752098735271,-3.3033998012542725,,
1752098735272,-3.605069160461426,-8.527547836303711,-0.6949170231819153
1752098735340,-4.059967517852783,-7.636904716491699,-1.4323312044143677
1752098735405,-2.518101692199707,-8.42699146270752,-1.5233107805252075
1752098735471,-1.6083049774169922,,
1752098735472,-1.5556325912475586,-8.479663848876953,-3.7211880683898926
1752098735540,-1.8381483554840088,-9.130887031555176,0.5021837949752808
1752098735604,-2.451063871383667,,
1752098735605,-2.5037364959716797,-9.643245697021484,0.06165069341659546
1752098735673,-2.9059622287750244,-13.335104942321777,-6.962936878204346
1752098735739,-3.6529531478881836,,
1752098735740,-3.576338768005371,-9.2841157913208,-0.37409400939941406
1752098735804,-3.2315738201141357,-8.6089506149292,0.24839842319488525
1752098735871,-3.514089584350586,-9.566631317138672,0.2867056429386139
1752098735938,-3.1310172080993652,-9.5809965133667,0.5740098357200623
1752098735939,,-9.241020202636719,
1752098736004,-2.743156671524048,-8.829216957092285,-1.0301052331924438
1752098736071,-3.380014181137085,-9.2841157913208,0.20051439106464386
1752098736138,-2.853289842605591,-9.379883766174316,0.27234044671058655
1752098736204,-2.6617536544799805,,
1752098736271,-2.987365245819092,-9.446921348571777,0.34416648745536804
1752098736339,-2.9299042224884033,-9.327211380004883,-0.04369417950510979
1752098736405,-2.7479450702667236,-9.533112525939941,-0.01496376097202301
1752098736472,-2.388814687728882,,
1752098736473,,-9.480440139770508,0.27234044671058655
1752098736539,-2.407968282699585,,
1752098736540,,-9.389460563659668,0.38726213574409485
1752098736604,-3.0544028282165527,-9.303269386291504,0.34416648745536804
1752098736671,-3.4757823944091797,-9.097368240356445,-0.23044191300868988
1752098736739,-3.3464953899383545,-9.27453899383545,-0.0867898091673851
1752098736804,-2.78625226020813,,0.4016273319721222
1752098736805,,-8.972869873046875,0.1909375786781311
1752098736871,-2.891597032546997,-9.59057331085205,0.5931634902954102
1752098736938,-3.092710018157959,,
1752098736939,,-8.9680814743042,0.32022446393966675
1752098737004,-2.7910406589508057,,
1752098737005,,-9.260173797607422,-0.5847837924957275
1752098737071,-3.3895909786224365,-9.52353572845459,0.20051439106464386
1752098737138,-2.8389246463775635,,
1752098737139,-2.7910406589508057,-9.193136215209961,-5.985504249110818E-4
1752098737205,-2.3457190990448,-9.15961742401123,0.4255693554878235
1752098737271,-3.15974760055542,-9.504382133483887,-0.14903905987739563
1752098737341,-2.5755624771118164,-9.178771018981934,-0.25917232036590576
1752098737405,-2.9538464546203613,,0.406415730714798
1752098737406,,-9.150040626525879,0.3250128924846649
1752098737472,-2.9107506275177,,-0.07242459803819656
1752098737473,,-9.298480987548828,
1752098737540,-3.5236663818359375,,
1752098737541,,-9.566631317138672,0.20530278980731964
1752098737604,-2.6186580657958984,,
1752098737605,,-9.188347816467285,-0.01496376097202301
1752098737673,-2.987365245819092,-9.145252227783203,0.29149407148361206
1752098737740,-3.154959201812744,-9.609726905822754,0.4159925580024719
1752098737806,-2.5564088821411133,-9.418190956115723,-0.03890577703714371
1752098737872,-2.3505074977874756,,0.3824737071990967
1752098737873,,-9.279327392578125,
1752098737939,-3.447052001953125,,
1752098737940,,-9.360730171203613,-0.0628477931022644
1752098738006,-2.9538464546203613,-9.1260986328125,-0.17298106849193573
1752098738072,-3.154959201812744,,
1752098738073,,-9.59057331085205,0.29149407148361206
1752098738140,-2.5707740783691406,-9.30805778503418,0.353743314743042
1752098738205,-2.403179883956909,-9.437344551086426,0.17657238245010376
1752098738206,,-9.513958930969238,
1752098738273,-2.7479450702667236,,
1752098738274,,-9.34157657623291,-0.41718965768814087
1752098738339,-2.7958290576934814,-9.499593734741211,0.2148796021938324
1752098738405,-3.092710018157959,,
1752098738406,-2.9730000495910645,-9.245808601379395,-0.1107318252325058
1752098738472,-2.647388458251953,,
1752098738473,,-9.389460563659668,-0.11552023142576218
1752098738540,-3.0113072395324707,,
1752098738541,,-9.30805778503418,0.06643909960985184
1752098738605,-2.7766754627227783,,
1752098738606,-2.8868086338043213,-9.43255615234375,0.4207809567451477
1752098738672,-2.762310266494751,,
1752098738673,,-9.34157657623291,0.15741875767707825
1752098738740,-2.609081268310547,-9.317634582519531,-0.11552023142576218
1752098738805,-2.9059622287750244,,
1752098738806,-2.7479450702667236,-9.422979354858398,0.4016273319721222
1752098738871,-2.6426000595092773,,
1752098738872,-2.7527334690093994,-9.384672164916992,0.028131870552897453
1752098738941,-2.8628666400909424,-9.360730171203613,-0.07721300423145294
1752098739006,-3.0783448219299316,-9.537900924682617,0.14784196019172668
1752098739072,-2.7096378803253174,,
1752098739073,-2.6856956481933594,-9.073426246643066,0.39205053448677063
1752098739140,-2.6569652557373047,-9.533112525939941,0.32022446393966675
1752098739205,-2.5276784896850586,,
1752098739206,-2.7240030765533447,-9.327211380004883,-0.3884592354297638
1752098739273,-2.805405855178833,,
1752098739274,-2.676118850708008,-9.351153373718262,0.03292027488350868
1752098739340,-2.939481019973755,-9.676764488220215,0.6027402877807617
1752098739406,-2.805405855178833,,
1752098739407,-2.738368272781372,-9.480440139770508,-0.2256535142660141
1752098739473,-2.3313539028167725,-9.269750595092773,-0.292691171169281
1752098739540,-2.781463861465454,,
1752098739541,,-9.5809965133667,-0.0628477931022644
1752098739607,-2.7096378803253174,-10.045472145080566,-0.8912416100502014
1752098739673,-3.3848025798797607,,-1.7435773611068726
1752098739674,,-9.480440139770508,
1752098739741,-2.2212207317352295,-9.968857765197754,-1.0013748407363892
1752098739806,-1.9674352407455444,-8.743025779724121,-0.42197805643081665
1752098739872,-3.073556423187256,-8.843582153320312,0.8804676532745361
1752098739940,-2.7766754627227783,,
1752098739941,-2.676118850708008,-8.647257804870605,-0.6853402256965637
1752098740006,-3.8109705448150635,-9.499593734741211,-1.1402385234832764
1752098740073,-3.3417069911956787,-9.600150108337402,-1.877652645111084
1752098740140,-2.9107506275177,-9.408614158630371,-1.1929110288619995
1752098740205,-3.221997022628784,,
1752098740206,-2.623446464538574,-9.18355941772461,-1.4802151918411255
1752098740273,-2.5133132934570312,-9.2841157913208,-2.2176294326782227
1752098741835,-3.025672435760498,-9.46607494354248,-1.2934675216674805
1752098741841,-2.915539026260376,,0.6937199234962463
1752098741842,,-9.317634582519531,
1752098741911,-3.9402575492858887,-9.739013671875,0.406415730714798
1752098741979,-3.538031578063965,-8.944138526916504,0.22924481332302094
1752098742024,-3.111863613128662,-9.21707820892334,0.6554127335548401
1752098742028,-3.1070752143859863,-9.451709747314453,0.6937199234962463
1752098742093,-3.0400376319885254,-9.652822494506836,0.6554127335548401
1752098742159,-2.7766754627227783,-9.59057331085205,0.36332011222839355
1752098742226,-2.1493945121765137,-10.193912506103516,-0.4794389009475708
1752098742798,-1.8956091403961182,-10.284892082214355,-6.091447830200195
1752098742804,-2.1589713096618652,-10.327987670898438,-4.343680381774902
1752098742875,-3.494935989379883,-9.331999778747559,1.5221136808395386
1752098742941,-4.9170918464660645,-9.188347816467285,0.9475052952766418
1752098747052,-3.6385879516601562,,
1752098747053,,-9.906607627868652,-2.433107376098633
1752098747115,-2.297835111618042,,
1752098747116,-2.5755624771118164,-9.073426246643066,0.5596446394920349
1752098747182,-2.9921536445617676,-9.312846183776855,0.6123170852661133
1752098747251,-3.7247793674468994,-9.528324127197266,0.45908817648887634
1752098747316,-4.44782829284668,-9.011177062988281,0.0999579206109047
1752098747399,-2.5037364959716797,,1.0432734489440918
1752098747400,,-9.748590469360352,1.3976151943206787
1752098747462,-0.2579752206802368,,
1752098747463,,-10.37108325958252,0.24361002445220947
1752098747530,2.7347769737243652,-11.151593208312988,0.6458359360694885
1752098747597,-2.5707740783691406,-9.130887031555176,-3.3285388946533203
1752098748290,-2.9011738300323486,-9.916184425354004,0.2388216257095337
1752098748351,-2.0919337272644043,,
1752098748352,,-8.881889343261719,-2.7730841636657715
1752098748417,-1.0767922401428223,,
1752098748418,,-9.413402557373047,-2.76350736618042
1752098748484,-1.9626468420028687,-8.867524147033691,-3.026869535446167
1752098748551,-1.7998411655426025,-8.230667114257812,-5.45458984375
1752098748617,-1.569997787475586,-9.77253246307373,-4.113837242126465
1752098748618,,-8.671199798583984,
1752098748684,-1.268328309059143,,
1752098748685,,-7.948151111602783,-5.143343925476074
1752098748752,-1.488594889640808,-8.556278228759766,-5.722740650177002
1752098748818,-1.2970588207244873,-7.555501937866211,-6.397905349731445
1752098748884,-2.1254525184631348,-8.628104209899902,-4.386775970458984
1752098748952,-1.4071919918060303,-8.077438354492188,-6.163273811340332
1752098749019,-0.7894880175590515,-7.61296272277832,-5.253477096557617
1752098749084,-2.168548107147217,,-6.479308128356934
1752098749085,,-7.790133953094482,-6.421847343444824
1752098749153,-2.010530948638916,-6.961740016937256,-4.92307710647583
1752098749218,-2.0823569297790527,-7.392696380615234,-4.932653903961182
1752098749283,-2.6617536544799805,,
1752098749284,,-8.331223487854004,-5.33009147644043
1752098749352,-1.4119805097579956,-8.00561237335205,-6.12017822265625
1752098749418,-2.5468320846557617,-8.503605842590332,-4.769848346710205
1752098749485,-2.4223334789276123,-5.525218963623047,-2.6868927478790283
1752098749553,-3.734356164932251,-9.030330657958984,-8.021174430847168
1752098749618,-3.5619735717773438,-7.694365501403809,-0.18734627962112427
1752098749619,,-7.148487567901611,
1752098749685,-5.0703206062316895,-8.790909767150879,-0.2783259451389313
1752098749752,-7.000047206878662,,
1752098749753,-6.1955952644348145,-10.94569206237793,-1.1354501247406006
1752098749818,-4.912303447723389,-8.201936721801758,2.0488381385803223
1752098749819,,-8.522759437561035,
1752098749884,-5.2666449546813965,,
1752098749885,,-8.489240646362305,-0.5273229479789734
1752098749951,-4.045602321624756,-8.321646690368652,-1.8249802589416504
1752098750018,-3.0113072395324707,,
1752098750019,-2.719214677810669,-9.221866607666016,-0.7044938206672668
1752098750084,-3.0639796257019043,,
1752098750085,,-9.116521835327148,1.4215573072433472
1752098750151,-2.9251158237457275,,
1752098750152,,-9.135675430297852,0.47824180126190186
1752098750218,-3.8540661334991455,,
1752098750219,,-8.264185905456543,0.8038532137870789
1752098750284,-3.844489336013794,,
1752098750285,,-9.729436874389648,-4.774636745452881
1752098750351,-3.686472177505493,,
1752098750352,,-11.175535202026367,-2.6390087604522705
1752098750418,-3.2315738201141357,,
1752098750419,,-12.430096626281738,-3.0125043392181396
1752098750485,-1.9865888357162476,-7.541136741638184,3.006518840789795
1752098750551,-2.2212207317352295,-8.929773330688477,0.6458359360694885
1752098750618,-2.2451627254486084,,
1752098750619,-1.876455545425415,-9.456498146057129,-1.6621745824813843
1752098750684,-4.237138271331787,,
1752098750685,,-7.780557155609131,-0.5752069354057312
1752098750751,-1.1725603342056274,,-1.7052701711654663
1752098750752,,-8.810063362121582,-2.8832173347473145
1752098750818,-1.713649868965149,-8.355165481567383,-4.080318450927734
1752098750885,-6.506841659545898,-9.006388664245605,-4.654926776885986
1752098750951,-7.402273178100586,,
1752098750952,-7.191583156585693,-9.79647445678711,-5.985504249110818E-4
1752098751018,-5.395932197570801,,
1752098751019,,-12.8131685256958,-2.6868927478790283
1752098751084,0.8912416100502014,,
1752098751085,,-6.272210121154785,2.8772318363189697
1752098751151,-3.1310172080993652,-13.110050201416016,6.07588529586792
1752098751218,-2.293046712875366,-7.828441143035889,-0.7523778676986694
1752098751219,,-8.872312545776367,
1752098751284,-3.973776340484619,-8.474875450134277,-0.3597288131713867
1752098751351,-4.936245441436768,-9.820416450500488,0.10953472554683685
1752098751418,-3.1453824043273926,-9.087791442871094,-0.579995334148407
1752098751484,-2.5276784896850586,-9.312846183776855,-0.761954665184021
1752098751552,-4.25629186630249,-10.524312019348145,0.3968389332294464
1752098751618,-6.506841659545898,,
1752098751619,,-11.908161163330078,-0.536899745464325
1752098751685,-3.9641995429992676,-12.042236328125,-6.7714009284973145
1752098751751,2.9933507442474365,-15.595231056213379,1.9243396520614624
1752098751819,1.8584990501403809,,
1752098751820,1.6286556720733643,-12.616844177246094,1.4024035930633545
1752098751884,-0.6649895310401917,,
1752098751885,,-5.017648220062256,2.805405855178833
1752098751951,-5.486911773681641,,
1752098751952,-5.391143798828125,-7.04793119430542,-0.1777694821357727
1752098752018,0.005386953707784414,,0.09516951441764832
1752098752019,,-5.319317817687988,-0.8481459617614746
1752098752084,-3.049614429473877,,
1752098752085,,-10.122086524963379,-8.806472778320312
1752098752151,-15.17385196685791,-10.112509727478027,-0.7140706777572632
1752098752218,-3.2172086238861084,-16.41404914855957,2.542043685913086
1752098752284,3.4961330890655518,,
1752098752285,4.219182014465332,-5.108627796173096,-0.4124012291431427
1752098752351,1.6478092670440674,-11.156381607055664,9.245808601379395
1752098752418,-3.092710018157959,-9.331999778747559,-3.0795419216156006
1752098752419,,-9.30805778503418,
1752098752485,-2.9059622287750244,-9.604938507080078,1.8046295642852783
1752098752551,-7.296928405761719,-9.494805335998535,1.9147628545761108
1752098752620,-8.498817443847656,,
1752098752621,-8.431779861450195,-9.288904190063477,0.3489548861980438
1752098752684,-5.884349346160889,-7.742249965667725,-1.2982559204101562
1752098752750,-3.001730442047119,,0.1909375786781311
1752098752751,,-9.169194221496582,
1752098752818,-4.701613426208496,-12.650362968444824,2.3074119091033936
1752098752884,-3.3512837886810303,-11.142016410827637,-2.141014814376831
1752098752950,-3.06876802444458,,
1752098752951,,-12.458827018737793,3.3273417949676514
1752098753018,-2.0632033348083496,-12.209830284118652,5.898714542388916
1752098753085,-1.5795745849609375,,
1752098753086,-2.3696610927581787,,0.32022446393966675
1752098753150,-1.6083049774169922,,
1752098753151,,-10.361506462097168,0.12389993667602539
1752098753218,0.5416881442070007,-9.288904190063477,-0.25917232036590576
1752098753284,0.21128830313682556,-10.9121732711792,-11.947665214538574
1752098753351,-6.008847713470459,-20.311809539794922,-2.011728048324585
1752098753477,-1.368884801864624,,
1752098753478,-2.7335798740386963,-2.2882583141326904,6.037578105926514
1752098753545,-3.2315738201141357,-9.815628051757812,-5.971737384796143
1752098753612,-0.29628247022628784,-8.240243911743164,-0.4411316514015198
1752098753679,-2.518101692199707,-10.624868392944336,2.494159698486328
1752098753745,-2.3026235103607178,,
1752098753746,,-9.758167266845703,-3.57753586769104
1752098753812,-3.820547342300415,-9.049484252929688,1.2539631128311157
1752098753879,-4.189254283905029,-8.944138526916504,0.9044097065925598
1752098753947,-4.3855791091918945,,-0.5464765429496765
1752098753948,,-9.231443405151367,
1752098754013,-4.117428302764893,-8.7669677734375,2.3696610927581787
1752098754651,-2.5516204833984375,-9.767744064331055,-0.46986207365989685
1752098754657,-3.5667619705200195,-9.1260986328125,0.8900445103645325
1752098754726,-2.7958290576934814,,-0.3645172119140625
1752098754727,,-9.528324127197266,
1752098754792,-2.1733365058898926,-9.695918083190918,0.353743314743042
1752098754793,,-8.905831336975098,
1752098754859,-2.700061082839966,,1.0193313360214233
1752098754860,,-9.255385398864746,
1752098754925,-3.0591912269592285,,0.9762357473373413
1752098754926,,-9.178771018981934,1.24917471408844
1752098754992,-3.9881415367126465,-9.288904190063477,-0.7284358739852905
1752098755059,-4.524442672729492,-9.30805778503418,-0.7140706777572632
1752098755126,-2.340930700302124,,
1752098755127,,-9.715071678161621,-0.4842272996902466
1752098755192,-2.3505074977874756,,
1752098755193,-1.8429367542266846,-10.002376556396484,0.6458359360694885
1752098755260,-1.3353660106658936,,
1752098755261,,-8.91540813446045,0.5261258482933044
1752098755326,-1.4981716871261597,-8.910619735717773,0.3968389332294464
1752098755394,-2.6138696670532227,-10.050260543823242,0.3058592677116394
1752098755461,-3.5476083755493164,-9.059061050415039,-0.718859076499939
1752098755526,-2.5947160720825195,,-0.5656301379203796
1752098755527,,-8.963293075561523,
1752098755593,-2.62823486328125,,
1752098755594,-2.8389246463775635,-10.174758911132812,0.10474632680416107
1752098755659,-2.3552958965301514,,
1752098755660,-2.5707740783691406,-8.604162216186523,0.8804676532745361
1752098755726,-2.3265655040740967,-9.279327392578125,-0.6039373874664307
1752098755792,-2.8006174564361572,,
1752098755793,-3.22678542137146,-9.370306968688965,0.6171054840087891
1752098755859,-3.50930118560791,,
1752098755860,,-9.27453899383545,-0.28790274262428284
1752098755926,-2.810194253921509,-9.355941772460938,-1.326986312866211
1752098755992,-3.356072187423706,,
1752098755993,,-9.786897659301758,-0.9391255974769592
1752098756059,-3.111863613128662,,
1752098756060,-3.025672435760498,-9.691129684448242,-0.6374561786651611
1752098756126,-2.3122003078460693,-9.786897659301758,-1.470638394355774
1752098756192,-1.2443863153457642,-8.719083786010742,0.5644330382347107
1752098756259,-1.6226701736450195,,
1752098756260,-1.3784615993499756,-9.226655006408691,0.12389993667602539
1752098756325,-0.8517372608184814,,
1752098756326,-0.6602011322975159,-8.479663848876953,-0.7428010702133179
1752098756392,-1.1725603342056274,-10.289680480957031,-3.2136173248291016
1752098756460,-5.118204593658447,,
1752098756461,,-12.703035354614258,-3.730764865875244
1752098756525,-3.451840400695801,,
1752098756526,-3.6721067428588867,-7.574655532836914,-1.9829975366592407
1752098756592,-3.2986114025115967,-9.715071678161621,-0.7140706777572632
1752098756659,-4.270657062530518,,
1752098756660,-3.8301241397857666,-9.322422981262207,0.823006808757782
1752098756725,-2.427121877670288,,
1752098756726,-2.1733365058898926,-9.576208114624023,-1.6430208683013916
1752098756792,-3.447052001953125,,
1752098756793,,-9.619303703308105,0.6889315247535706
1752098756859,-2.676118850708008,,
1752098756860,,-9.370306968688965,-0.3597288131713867
1752098756925,-2.6138696670532227,,
1752098756926,-2.3074119091033936,-9.030330657958984,0.7990648150444031
1752098756992,-2.5085248947143555,-10.055048942565918,-1.0444705486297607
1752098757059,-2.7670986652374268,,
1752098757060,-2.542043685913086,-8.992023468017578,-0.800261914730072
1752098757126,-2.695272445678711,,
1752098757127,-3.135805606842041,-8.958504676818848,0.21966800093650818
1752098757192,-3.135805606842041,,-0.2783259451389313
1752098757193,,-9.427767753601074,
1752098757259,-2.3696610927581787,,
1752098757260,,-9.346364974975586,-0.800261914730072
1752098757326,-2.384026288986206,,
1752098757327,,-9.49001693725586,-0.24001872539520264
1752098757393,-2.7718870639801025,-9.485228538513184,-0.6949170231819153
1752098757460,-2.958634853363037,-9.5809965133667,-0.7428010702133179
1752098757526,-2.7096378803253174,-9.389460563659668,-0.1538274586200714
1752098757592,-2.077568531036377,-9.030330657958984,-0.37888240814208984
1752098757661,-3.178901195526123,-10.18912410736084,-1.0636241436004639
1752098757725,-1.9147628545761108,,
1752098757726,-2.2451627254486084,-9.173982620239258,-0.6374561786651611
1752098757793,-3.6098575592041016,-9.15961742401123,0.29149407148361206
1752098757860,-4.35684871673584,-9.518747329711914,-1.2503718137741089
1752098757926,-1.953070044517517,-9.288904190063477,-0.5033808946609497
1752098757992,-3.087921619415283,,
1752098757993,,-9.145252227783203,-0.053270988166332245
1752098758060,-3.336918592453003,,
1752098758061,,-9.21707820892334,-0.9151836037635803
1752098758126,-2.364872694015503,-9.5809965133667,-1.2407950162887573
1752098758193,-2.3026235103607178,-9.394248962402344,-0.6278793811798096
1752098758260,-2.4654293060302734,-9.207501411437988,-0.048482585698366165
1752098758326,-3.0113072395324707,,-1.1019313335418701
1752098758327,,-9.202713012695312,-1.2407950162887573
1752098758393,-2.8437130451202393,-9.518747329711914,-1.3126211166381836
1752098758460,-2.4223334789276123,,-0.7284358739852905
1752098758461,,-9.43255615234375,
1752098758526,-3.1980550289154053,-9.30805778503418,-0.8098387122154236
1752098758592,-2.652176856994629,,
1752098758593,-2.4127566814422607,-9.245808601379395,-0.9199720025062561
1752098758660,-2.867655038833618,-9.715071678161621,-1.1115081310272217
1752098758726,-2.2882583141326904,-9.25059700012207,-0.536899745464325
1752098758792,-3.3704373836517334,,
1752098758793,-2.695272445678711,-9.475651741027832,-0.44592007994651794
1752098758860,-2.2643163204193115,,
1752098758861,-2.479794502258301,-9.30805778503418,-1.082777738571167
1752098758926,-2.3026235103607178,-9.61451530456543,-0.5752069354057312
1752098758992,-2.982576847076416,,
1752098758993,-2.5947160720825195,,-0.1538274586200714
1752098758994,,-9.03511905670166,
1752098759060,-3.1932666301727295,-9.178771018981934,-0.07242459803819656
1752098759126,-3.2172086238861084,-9.494805335998535,-0.9343371987342834
1752098759193,-2.6856956481933594,-9.724648475646973,-1.1210849285125732
1752098759259,-2.604292869567871,,
1752098759260,-2.7718870639801025,-9.178771018981934,-0.1538274586200714
1752098759326,-2.3122003078460693,-8.963293075561523,-0.4411316514015198
1752098759393,-2.8437130451202393,,
1752098759394,-2.494159698486328,,-1.326986312866211
1752098759395,,-9.619303703308105,
1752098759461,-2.034472942352295,-9.379883766174316,-0.5225345492362976
1752098759527,-2.7479450702667236,-9.566631317138672,-0.5033808946609497
1752098759592,-2.3552958965301514,,
1752098759593,,-9.542689323425293,-1.3557167053222656
1752098759660,-1.7950527667999268,-9.877877235412598,-1.22642982006073
1752098759726,-1.8668787479400635,-9.446921348571777,-0.618302583694458
1752098765676,-1.512536883354187,,-0.46986207365989685
1752098765677,-2.9203274250030518,-9.657610893249512,-0.8242039084434509
1752098765678,-0.8038532137870789,-8.55148983001709,-1.9255367517471313
1752098765680,-2.4845829010009766,-9.145252227783203,0.004189853090792894
1752098765748,-4.237138271331787,,
1752098765749,,-9.470863342285156,-1.6238672733306885
1752098765814,-2.0919337272644043,,
1752098765815,,-10.026318550109863,-1.590348482131958
1752098765882,-1.1677719354629517,-9.327211380004883,-1.6573861837387085
1752098765948,-2.1924901008605957,,
1752098765949,-3.245939016342163,-9.628880500793457,-1.1785458326339722
1752098767058,-3.6385879516601562,-8.12053394317627,-0.4076128304004669
1752098767062,-1.876455545425415,-10.165182113647461,-1.0875661373138428
1752098767131,-2.182913303375244,-9.494805335998535,-1.1402385234832764
1752098767197,-2.5276784896850586,-9.43255615234375,-0.7092822790145874
1752098769804,-3.5284547805786133,-8.70950698852539,-0.9151836037635803
1752098769806,-1.809417963027954,-8.814851760864258,-0.5033808946609497
1752098769871,-1.9387048482894897,-8.810063362121582,-0.19213469326496124
1752098769937,-1.4933832883834839,-9.715071678161621,-1.6478092670440674
1752098770004,-1.4024035930633545,,-1.7148469686508179
1752098770005,,-9.30805778503418,-2.385223388671875
1752098770071,-2.249951124191284,,
1752098770072,,-9.063849449157715,-2.0931308269500732
1752098770134,-3.6529531478881836,-10.074202537536621,-2.2607250213623047
1752098770197,-3.0160956382751465,,
1752098770198,,-8.776544570922852,-2.409165382385254
1752098770264,-1.7950527667999268,-8.513182640075684,-1.834557056427002
1752098770332,-1.1917139291763306,-8.723872184753418,-1.3126211166381836
1752098774103,-2.1541829109191895,,
1752098774104,-4.500500679016113,-8.64246940612793,-1.547252893447876
1752098774105,-4.323329925537109,,0.22445641458034515
1752098774108,-2.604292869567871,,
1752098774109,-2.5133132934570312,-9.734225273132324,-1.058835744857788
1752098774177,-2.3361423015594482,-9.576208114624023,-0.862511157989502
1752098774178,,-9.135675430297852,
1752098774243,-2.9203274250030518,-10.289680480957031,-0.536899745464325
1752098777161,-0.9522937536239624,,-2.160168409347534
1752098777162,-2.0679917335510254,-9.853935241699219,-1.9494787454605103
1752098777165,-2.8149826526641846,,
1752098777166,,-9.322422981262207,-1.0301052331924438
1752098777218,-1.9003976583480835,-9.494805335998535,-0.3884592354297638
1752098777285,-2.7910406589508057,,
1752098777286,-2.3696610927581787,-9.394248962402344,-1.4083890914916992
1752098777352,-2.427121877670288,,-1.2407950162887573
1752098777353,,-9.317634582519531,
1752098777419,-2.824559450149536,-9.494805335998535,-1.7292121648788452
1752098777485,-2.3313539028167725,,
1752098777486,-2.360084295272827,-9.336788177490234,-0.862511157989502
1752098777553,-2.0057425498962402,-9.499593734741211,-0.7140706777572632
1752098777619,-2.829347848892212,-9.786897659301758,-1.202487826347351
1752098777685,-2.2212207317352295,,
1752098777686,-2.206855535507202,-9.729436874389648,-2.0213048458099365
1752098777753,-2.273893117904663,-9.154829025268555,-0.8768763542175293
1752098777819,-3.5284547805786133,-9.748590469360352,-1.9207483530044556
1752098777885,-1.7423802614212036,,
1752098777886,-2.3361423015594482,-9.365518569946289,-0.9774328470230103
1752098777953,-2.848501443862915,-9.1260986328125,-1.0923545360565186
1752098778019,-2.8868086338043213,-9.5809965133667,-1.245583415031433
1752098778086,-2.293046712875366,-9.571419715881348,-1.8249802589416504
1752098778153,-2.867655038833618,,
1752098778154,-3.715202569961548,-9.116521835327148,-1.0875661373138428
1752098778219,-3.1884782314300537,-9.360730171203613,-1.2503718137741089
1752098778286,-2.293046712875366,,
1752098778287,,-9.518747329711914,-1.6621745824813843
1752098778353,-1.613093376159668,,-1.1641805171966553
1752098778354,,-9.667187690734863,-1.3605051040649414
1752098778420,-0.9139865040779114,-9.566631317138672,-1.3988122940063477
1752098779817,-2.168548107147217,,-0.7523778676986694
1752098779818,-2.1781249046325684,-9.355941772460938,
1752098779823,-3.0400376319885254,-9.461286544799805,-2.0452468395233154
1752098779890,-3.4805707931518555,,
1752098779891,,-9.360730171203613,-1.3509283065795898
1752098779957,-2.1062989234924316,,
1752098779958,-2.872443437576294,-9.456498146057129,-1.3748703002929688
1752098780021,-1.081580638885498,-9.499593734741211,-1.79146146774292
1752098780085,-2.3457190990448,,
1752098780086,,-9.528324127197266,-1.4610615968704224
1752098780152,-1.857301950454712,-8.877100944519043,-1.2791022062301636
1752098780219,-3.451840400695801,,
1752098780220,-3.0160956382751465,-9.475651741027832,-1.6190788745880127
1752098780353,-2.5276784896850586,-9.231443405151367,-1.9303251504898071
1752098780357,-3.1262288093566895,,
1752098780358,,-9.700706481933594,-1.7052701711654663
1752098780421,-2.5037364959716797,-9.384672164916992,-1.710058569908142
1752098780488,-2.561197280883789,-9.633668899536133,-1.2599486112594604
1752098780555,-1.9961656332015991,-9.221866607666016,-1.5185223817825317
1752098780621,-3.3033998012542725,-9.758167266845703,-2.1314380168914795
1752098780688,-2.1302409172058105,-9.327211380004883,-2.1936872005462646
1752098780755,-1.9722236394882202,,
1752098780756,-2.3552958965301514,-9.00160026550293,-1.2407950162887573
1752098790967,-1.632246971130371,,
1752098790968,-2.1924901008605957,,
1752098790970,-1.4933832883834839,,-1.269525408744812
1752098790971,,,-1.4371196031570435
1752098790972,,-9.154829025268555,-1.547252893447876
1752098790973,,-9.06863784790039,
1752098790974,-2.9203274250030518,-9.494805335998535,
1752098791039,-2.431910276412964,,
1752098791040,,-9.231443405151367,-0.4842272996902466
1752098791107,-3.087921619415283,,
1752098791108,-3.552396774291992,-9.054272651672363,-0.761954665184021
1752098791359,-2.824559450149536,-8.948927879333496,-1.0013748407363892
1752098791364,-2.805405855178833,-9.513958930969238,-0.44592007994651794
1752098791427,-1.756745457649231,,
1752098791428,-2.407968282699585,-9.054272651672363,-1.1641805171966553
1752098791495,-2.9921536445617676,,
1752098791496,,-9.27453899383545,-1.2599486112594604
1752098796244,-3.0208840370178223,-9.547477722167969,-1.5520412921905518
1752098796245,-1.809417963027954,-9.226655006408691,-1.2072762250900269
1752098796248,-4.366425514221191,-12.846687316894531,2.0201077461242676
1752098796315,-1.9243396520614624,,
1752098796316,-2.3074119091033936,-4.907515048980713,-6.005256175994873
1752098796383,-4.361637115478516,,
1752098796386,,-11.64958667755127,1.392826795578003
1752098799727,-4.75428581237793,,
1752098799728,1.9590555429458618,,
1752098799729,-3.9881415367126465,-8.46051025390625,1.2539631128311157
1752098799732,-1.8429367542266846,-9.786897659301758,-0.6422445774078369
1752098799800,-3.60028076171875,,
1752098799801,,-9.34157657623291,0.08080431073904037
1752098799867,-2.9442696571350098,-9.360730171203613,-0.41718965768814087
1752098832764,-1.7232266664505005,,
1752098832765,-3.092710018157959,,-1.4850035905838013
1752098832766,,-9.791686058044434,-0.8912416100502014
1752098832767,,-8.872312545776367,
1752098832768,-3.552396774291992,-8.805274963378906,-0.3166331648826599
1752098832769,-6.92343282699585,-10.926538467407227,-1.6956933736801147
1752098832770,-2.8197710514068604,-9.193136215209961,-0.19213469326496124
1752098832773,-2.2212207317352295,-9.370306968688965,0.899621307849884
1752098832830,-7.134122371673584,-3.514089584350586,-5.569511890411377
1752098832897,-9.49001693725586,,-4.755483150482178
1752098832898,,-4.399944305419922,-4.966172695159912
1752098836328,-6.047154903411865,,
1752098836329,,-1.4502876996994019,-4.6740803718566895
1752098836330,,-4.012083530426025,
1752098836333,-8.307281494140625,,
1752098836334,,-2.3552958965301514,-4.324526786804199
1752098836404,-9.39903736114502,-2.5947160720825195,-4.947019100189209
1752098836469,-7.311293601989746,-2.3313539028167725,-4.8273091316223145
1752098836561,-6.20038366317749,,
1752098836562,-6.30094051361084,-1.4407109022140503,-4.506485939025879
1752098836563,,-0.6027402877807617,
1752098836567,-7.943362712860107,-3.624222755432129,-4.6070427894592285
1752098836630,-8.613739013671875,-1.7184382677078247,-4.291007995605469
1752098836696,-8.048707962036133,,-4.779425144195557
1752098836697,,-3.3033998012542725,
1752098836765,-9.15961742401123,,
1752098836766,,-2.3983914852142334,-4.472967147827148
1752098836830,-8.019977569580078,,-4.089895248413086
1752098836831,,-3.4087445735931396,
1752098836905,-7.775768756866455,-1.8381483554840088,-5.306149482727051
1752098836968,-8.46051025390625,-1.1007342338562012,-3.6349966526031494
1752098837035,-8.929773330688477,-3.269881010055542,-4.784213542938232
1752098837103,-8.992023468017578,-3.624222755432129,-4.683657169342041
1752098837168,-7.751826763153076,,
1752098837169,,-2.9682116508483887,-4.276642799377441
1752098837234,-6.846818447113037,,
1752098837235,-7.857171535491943,-2.0248961448669434,-3.8600516319274902
1752098837303,-9.322422981262207,,
1752098837304,-10.323199272155762,-3.470993995666504,-4.152144432067871
1752098838396,-9.011177062988281,,
1752098838400,-7.589020729064941,-2.2164323329925537,-3.730764865875244
1752098838404,-8.752602577209473,-1.713649868965149,-4.410717964172363
1752098838471,-8.316858291625977,-2.206855535507202,-4.30058479309082
1752098838539,-8.446145057678223,,
1752098838542,-9.178771018981934,-2.0201077461242676,-3.912724018096924
1752098838605,-7.033565998077393,-1.8812439441680908,-3.5248634815216064
1752098838670,-9.734225273132324,,
1752098838671,-8.905831336975098,-3.5619735717773438,-4.372410774230957
1752098846349,-5.8891377449035645,-1.9578584432601929,-3.5200750827789307
1752098846350,-7.249044418334961,-5.869984149932861,-0.49380409717559814
1752098846351,-6.190806865692139,-7.387907981872559,0.028131870552897453
1752098846354,-5.443816184997559,-6.411073684692383,1.3305776119232178
1752098846417,-5.817311763763428,-8.379107475280762,1.1869255304336548
1752098846483,-7.186794757843018,-6.760627269744873,0.7032967209815979
1752098846551,-5.506065368652344,,
1752098846552,,-7.842806339263916,0.45908817648887634
1752098846617,-5.831676959991455,-8.685564994812012,0.2867056429386139
1752098846713,-5.170876979827881,-8.987235069274902,0.25318682193756104
1752098846717,-3.2746694087982178,-9.437344551086426,0.24361002445220947
1752098846781,-4.376002311706543,,
1752098846782,-4.232349872589111,-9.097368240356445,-0.17298106849193573
1752098846850,-5.458181381225586,-8.058284759521484,0.823006808757782
1752098846916,-5.2714338302612305,-6.420650482177734,0.9762357473373413
1752098847899,-5.683236122131348,,
1752098847900,-5.850830554962158,-6.415862083435059,1.268328309059143
1752098847906,-5.2714338302612305,-8.7669677734375,0.6554127335548401
1752098847977,-2.293046712875366,-9.43255615234375,-0.5273229479789734
1752098848041,-0.9283517003059387,,
1752098848042,-0.7224503755569458,-10.308834075927734,-0.517746090888977
1752098848109,-1.1677719354629517,-10.241796493530273,-0.18734627962112427
1752098848210,-0.9522937536239624,-10.385448455810547,0.5644330382347107
1752098848279,-2.522890090942383,-9.231443405151367,-0.12509703636169434
1752098848345,-2.0632033348083496,,
1752098848346,-1.546055793762207,-9.327211380004883,0.4686649739742279
1752098848413,-0.9858125448226929,,
1752098848414,-1.349731206893921,-9.806051254272461,1.589151382446289
1752098848479,-0.6889315247535706,-10.15560531616211,0.4686649739742279
1752098848699,0.2017114907503128,-9.537900924682617,0.5596446394920349
1752098848707,-1.0959458351135254,-9.92097282409668,0.7559691667556763
1752098848776,-0.9570821523666382,-9.858723640441895,0.6314706802368164
1752098848842,-1.2587515115737915,-10.117298126220703,1.2587515115737915
1752098848910,-0.8756792545318604,-10.85949993133545,1.3401544094085693
1752098848975,-0.013766659423708916,,0.444722980260849
1752098848976,,-9.892242431640625,0.43035775423049927
1752098849358,2.543240785598755,-8.388684272766113,1.7950527667999268
1752098849365,1.6286556720733643,-9.121310234069824,1.1581950187683105
1752098849435,0.7571662664413452,-10.22264289855957,1.0720038414001465
1752098849500,1.1737574338912964,-9.638457298278809,0.9714473485946655
1752098849567,-0.7416039705276489,-9.413402557373047,1.4359225034713745
1752098849633,-1.6178817749023438,,0.7080851793289185
1752098849634,,-10.198700904846191,2.0009541511535645
1752098849726,1.2503718137741089,,
1752098849727,,-9.336788177490234,0.9762357473373413
1752098849791,0.3693056106567383,-8.613739013671875,2.1062989234924316
1752098849857,-0.5644330382347107,-10.050260543823242,1.0193313360214233
1752098849923,-0.535702645778656,,
1752098849924,,-10.227431297302246,1.4502876996994019
1752098859983,0.9056068062782288,,
1752098859984,,-9.494805335998535,0.8948329091072083
1752098859985,1.9638439416885376,,0.03292027488350868
1752098859986,,-8.637681007385254,0.21009120345115662
1752098859987,1.5759832859039307,-11.793238639831543,
1752098860048,-4.601057052612305,,
1752098860049,-5.520430564880371,-12.214618682861328,2.0679917335510254
1752098860116,-6.9473748207092285,-9.806051254272461,1.7280150651931763
1752098860182,-7.622539520263672,,
1752098860183,,-13.277644157409668,4.289810657501221
1752098860249,0.9678560495376587,,
1752098860250,,-5.549160957336426,0.0520738884806633
1752098860484,1.5424644947052002,0.3214215636253357,-0.6039373874664307
1752098860488,-7.196371555328369,-22.02605628967285,1.5652093887329102
1752098860554,-0.4686649739742279,-14.163498878479004,3.0113072395324707
1752098860620,-12.947244644165039,-13.04780101776123,3.4278981685638428
1752098861948,-4.146158695220947,,
1752098861949,-4.912303447723389,-11.496357917785645,1.1677719354629517
1752098861953,2.212841033935547,1.1306617259979248,-1.8058266639709473
1752098862022,0.5081692934036255,-8.283339500427246,-3.007715940475464
1752098862086,-2.249951124191284,,
1752098862087,,-16.19378089904785,-2.16495680809021
1752098862194,-7.713519096374512,,
1752098862195,,-13.392565727233887,3.9833531379699707
1752098862199,-9.30805778503418,-10.265738487243652,-5.985504249110818E-4
1752098862264,-4.97934103012085,-10.964845657348633,-1.954267144203186
1752098862331,-3.7918169498443604,-11.999140739440918,0.5117605924606323
1752098862397,-4.763862609863281,-9.983222961425781,1.6274585723876953
1752098862523,-9.715071678161621,-11.692682266235352,-0.16819266974925995
1752098862528,-0.8325836658477783,,
1752098862529,1.2168530225753784,-8.321646690368652,2.4366986751556396
1752098862590,2.337339401245117,,
1752098862591,1.8680758476257324,-0.5404910445213318,0.24361002445220947
1752098862658,1.5568296909332275,,
1752098862659,,1.0779893398284912,-0.5321113467216492
1752098862724,2.1505916118621826,-1.7519570589065552,1.8429367542266846
1752098862791,-12.765284538269043,-31.516672134399414,2.115875720977783
1752098862859,-3.4087445735931396,-12.856264114379883,1.5795745849609375
1752098862925,-10.811615943908691,,1.2635399103164673
1752098862926,,-12.161946296691895,
1752098863796,-6.588244438171387,,
1752098863797,,-10.5530424118042,-1.3605051040649414
1752098863801,-6.842030048370361,-10.92175006866455,2.1781249046325684
1752098863865,-10.055048942565918,-12.104485511779785,0.18136078119277954
1752098863933,0.5273229479789734,-8.690353393554688,1.5795745849609375
1752098863997,2.476203203201294,,
1752098863998,2.184110403060913,0.7811083197593689,0.7846996188163757
1752098864064,1.6717513799667358,0.7954735159873962,-0.6853402256965637
1752098864866,4.319738388061523,,
1752098864867,4.238335609436035,1.3126211166381836,0.23403321206569672
1752098864869,-4.22277307510376,-18.741212844848633,-3.7690720558166504
1752098864934,-4.122216701507568,,
1752098864935,,-14.881759643554688,-0.5656301379203796
1752098864999,-13.799579620361328,-10.09814453125,-1.8441338539123535
1752098865066,-4.639364242553711,-9.34157657623291,-0.28790274262428284
1752098865134,-5.257068157196045,,
1752098865135,,-12.501922607421875,0.8565256595611572
1752098865200,-7.402273178100586,-10.605714797973633,0.4638765752315521
1752098865266,-4.763862609863281,,
1752098865267,,-9.911396026611328,-0.6230909824371338
1752098865333,2.849698543548584,,1.0432734489440918
1752098865334,,-2.1350293159484863,
1752098865400,2.7539305686950684,0.9295487999916077,-0.9582792520523071
1752098865467,3.491344690322876,,0.15263035893440247
1752098865468,,0.5273229479789734,
1752098865534,-5.1565117835998535,,
1752098865535,-17.079635620117188,,
1752098865536,,-20.465038299560547,3.3464953899383545
1752098865599,-7.354389190673828,-14.766837120056152,2.714426279067993
1752098865667,-15.269619941711426,,
1752098865668,-13.0142822265625,-12.037447929382324,0.11432313174009323
1752098865735,-7.387907981872559,,
1752098865736,,-10.49558162689209,-3.5727474689483643
1752098865801,-3.1070752143859863,-10.629656791687012,0.2148796021938324
1752098865867,-9.638457298278809,-11.089344024658203,1.2587515115737915
1752098865934,-10.442909240722656,,
1752098865935,,-12.635997772216797,0.3489548861980438
1752098866001,2.9215245246887207,-1.6801310777664185,2.4366986751556396
1752098866066,3.2615013122558594,,
1752098866067,3.4769794940948486,1.3317747116088867,-1.1929110288619995
1752098866135,3.271078109741211,2.212841033935547,-3.8504748344421387
1752098866200,3.620631456375122,,
1752098866201,,-12.219407081604004,0.5404910445213318
1752098866267,-15.365387916564941,-30.63560676574707,-3.692457675933838
1752098866333,-15.647903442382812,,
1752098866334,-17.02696418762207,-14.264055252075195,0.7032967209815979
1752098866401,-5.831676959991455,-7.814075946807861,-3.1848866939544678
1752098866467,-6.104615688323975,-12.774861335754395,-0.048482585698366165
1752098866534,-7.416638374328613,,
1752098866535,-8.101380348205566,-9.389460563659668,0.961870551109314
1752098866600,-10.7110595703125,,
1752098866601,-6.913856029510498,-13.268067359924316,-0.07721300423145294
1752098866667,1.4323312044143677,-5.558737754821777,-1.0109516382217407
1752098866736,1.8297686576843262,-0.08559270948171616,2.0248961448669434
1752098866800,2.538452386856079,,
1752098866801,2.806602954864502,1.7292121648788452,-0.7954735159873962
1752098866867,5.765836238861084,,3.8301241397857666
1752098866868,,2.255936622619629,
1752098866935,-15.849017143249512,-33.226131439208984,3.4087445735931396
1752098867001,-14.163498878479004,-14.90091323852539,-0.7571662664413452
1752098867068,-8.929773330688477,-8.125322341918945,-3.821744441986084
1752098867133,-6.444592475891113,,
1752098867134,,-11.673528671264648,-0.536899745464325
1752098867200,-8.355165481567383,-10.208277702331543,0.3106476664543152
1752098867268,-9.379883766174316,-10.366294860839844,0.43993455171585083
1752098867333,1.7627309560775757,,
1752098867334,2.653373956680298,-5.616198539733887,0.0520738884806633
1752098867400,2.9311013221740723,0.5608417391777039,0.5835866928100586
1752098867468,2.744353771209717,1.5233107805252075,-0.4842272996902466
1752098867533,5.847239017486572,-1.5269020795822144,2.4606409072875977
1752098867602,-21.499332427978516,-37.937923431396484,0.7463923692703247
1752098867667,-8.082226753234863,-14.695011138916016,-0.16340427100658417
1752098867733,-8.814851760864258,,
1752098867734,,-9.437344551086426,-2.7922377586364746
1752098867800,-5.812523365020752,-11.21863079071045,-1.1929110288619995
1752098867868,-6.229114055633545,-11.960833549499512,0.27234044671058655
1752098867933,-8.589797019958496,,
1752098867934,,-10.00716495513916,0.8661024570465088
1752098868000,-3.8971617221832275,-8.9249849319458,0.5261258482933044
1752098868067,2.2415714263916016,,
1752098868068,2.1505916118621826,-1.4838064908981323,2.5037364959716797
1752098868133,2.9933507442474365,,
1752098868134,,1.513733983039856,-0.9726444482803345
1752098868200,2.3948001861572266,0.7284358739852905,0.9906009435653687
1752098868267,-7.967304706573486,,
1752098868268,-19.531299591064453,-23.534404754638672,5.95138692855835
1752098868333,-7.009624004364014,,
1752098868334,-11.55860710144043,-14.283208847045898,1.6992846727371216
1752098868400,-12.942456245422363,-10.031106948852539,-2.006939649581909
1752098868467,-5.913079738616943,,
1752098868468,,-9.178771018981934,-2.361281394958496
1752098868533,-5.755062103271484,,
1752098868534,-5.170876979827881,-11.788450241088867,-0.31184476613998413
1752098868601,-6.789357662200928,-9.236231803894043,1.7998411655426025
1752098868668,-9.06863784790039,,
1752098868669,-4.749497413635254,-10.845134735107422,-0.5847837924957275
1752098868734,2.0452468395233154,-2.714426279067993,1.3401544094085693
1752098868801,2.1745336055755615,0.982221245765686,-0.8481459617614746
1752098868868,1.6525976657867432,,
1752098868869,,0.656609833240509,0.2867056429386139
1752098868933,-0.9379284977912903,,
1752098868934,-13.076531410217285,-14.685434341430664,3.006518840789795
1752098869001,-9.638457298278809,-22.265478134155273,-4.808155536651611
