timestamp,AccX,AccY,AccZ
1753031629003,0.44505003094673157,3.5149502754211426,9.705000877380371
1753031629053,0.5629500150680542,4.159049987792969,10.009050369262695
1753031629125,0.7680000066757202,4.219050407409668,8.599950790405273
1753031629186,0.6390000581741333,3.7039501667022705,9.622050285339355
1753031629253,0.7129500508308411,,
1753031629254,0.6490500569343567,3.9409501552581787,8.917950630187988
1753031629321,1.0579500198364258,2.7400500774383545,9.418050765991211
1753031629388,1.2370500564575195,3.184950113296509,8.79104995727539
1753031629455,0.24000000953674316,3.4669501781463623,9.193050384521484
1753031629522,-0.3150000274181366,,10.063950538635254
1753031629523,,4.468050003051758,
1753031629590,1.1299500465393066,,9.330000877380371
1753031629592,,2.9629502296447754,
1753031629657,1.765950083732605,,
1753031629658,1.7160000801086426,4.657050132751465,6.966000556945801
1753031629725,1.0699501037597656,4.051050186157227,9.415950775146484
1753031629792,2.5510501861572266,,8.734050750732422
1753031629793,,3.5490002632141113,
1753031629859,1.4410500526428223,,
1753031629860,1.714050054550171,,8.410950660705566
1753031629861,,4.276050090789795,
1753031629927,1.2420001029968262,4.936950206756592,7.0660505294799805
1753031629994,1.1970000267028809,4.645050048828125,10.222050666809082
1753031630061,1.8019500970840454,4.426949977874756,8.200050354003906
1753031630129,1.0890001058578491,3.9439501762390137,8.593050003051758
1753031630196,1.371000051498413,,
1753031630197,1.4050500392913818,4.9609503746032715,8.679000854492188
1753031630263,1.1509500741958618,4.669050216674805,8.932950019836426
1753031630330,1.3690500259399414,,7.82205057144165
1753031630331,,4.354950428009033,
1753031630397,1.3860000371932983,,8.077950477600098
1753031630399,,4.980000019073486,
1753031630464,2.149049997329712,5.63100004196167,10.56705093383789
1753031630465,,5.454000473022461,
1753031630532,2.1319501399993896,4.3909502029418945,9.004050254821777
1753031630599,1.864050030708313,,7.846050262451172
1753031630600,,3.4390501976013184,
1753031630667,2.6520001888275146,,7.863000392913818
1753031630670,,3.682950258255005,
1753031630734,2.686950206756592,,8.325000762939453
1753031630735,,4.872000217437744,
1753031630802,3.184950113296509,4.939050197601318,8.245950698852539
1753031630869,2.4910500049591064,3.7860002517700195,9.166950225830078
1753031631002,2.707050085067749,4.531949996948242,8.236050605773926
1753031631070,2.326050043106079,4.707000255584717,7.803000450134277
1753031631138,2.1319501399993896,,
1753031631139,2.3959500789642334,4.408050060272217,8.988000869750977
1753031631203,2.7709500789642334,,7.843950271606445
1753031631204,,3.573000192642212,
1753031631271,2.0029501914978027,3.0010502338409424,6.394050121307373
1753031631339,5.581050395965576,3.1369502544403076,6.247950077056885
1753031631405,4.159049987792969,,
1753031631406,3.5149502754211426,2.545950174331665,7.525050163269043
1753031631473,2.428950071334839,,4.111050128936768
1753031631474,,1.5700501203536987,
1753031631541,4.578000068664551,,
1753031631542,5.554050445556641,0.4050000309944153,5.877000331878662
1753031631608,10.42905044555664,-1.4800500869750977,7.516050338745117
1753031631675,11.788050651550293,,5.383950233459473
1753031631676,,-2.454000234603882,
1753031631742,9.871050834655762,,2.6269500255584717
1753031631744,,-2.868000030517578,
1753031631809,8.244000434875488,,1.8540000915527344
1753031631812,,-3.676950216293335,
1753031631879,9.177000045776367,-4.597949981689453,2.7970502376556396
1753031631944,11.167950630187988,-4.44195032119751,0.7920000553131104
1753031632012,10.165050506591797,-2.8560001850128174,2.8980002403259277
1753031632079,10.693950653076172,-3.390000104904175,1.7299500703811646
1753031632146,9.313050270080566,,
1753031632147,9.1360502243042,-4.378050327301025,3.9600002765655518
1753031632213,6.058950424194336,,
1753031632214,5.868000507354736,-4.107000350952148,4.501049995422363
1753031632280,5.923050403594971,,
1753031632281,5.770050048828125,-3.772050142288208,5.209050178527832
1753031632349,5.571000099182129,,
1753031632350,5.841000080108643,-3.4810502529144287,4.318950176239014
1753031632415,6.375000476837158,,
1753031632416,6.829950332641602,-4.5360002517700195,4.813950061798096
1753031632482,7.957050323486328,,
1753031632483,,-4.736999988555908,4.888050079345703
1753031632550,8.75100040435791,,4.417050361633301
1753031632554,,-3.7170002460479736,
1753031632618,8.212950706481934,-5.017050266265869,3.6349501609802246
1753031632684,7.342050552368164,-5.034000396728516,0.2560500204563141
1753031632752,7.866000175476074,,1.64805006980896
1753031632753,,-5.110050201416016,
1753031632819,8.513999938964844,,-0.24300001561641693
1753031632822,,-5.794050216674805,
1753031632886,9.558000564575195,-5.8690505027771,-0.909000039100647
1753031632952,8.574000358581543,,-0.322050005197525
1753031632953,,-5.823000431060791,
1753031633020,7.5450005531311035,-5.670000076293945,0.8470500111579895
1753031633088,7.354050159454346,,-1.0279500484466553
1753031633090,,-6.256050109863281,
1753031633155,7.4569501876831055,-5.854050159454346,0.6100500226020813
1753031633222,8.694000244140625,,
1753031633223,,-5.952000141143799,0.5209500193595886
1753031633289,8.136000633239746,,-0.3439500033855438
1753031633290,,-6.189000129699707,
1753031633357,7.459050178527832,,0.9019500613212585
1753031633358,,-5.73900032043457,
1753031633359,,-5.850000381469727,
1753031633424,7.330050468444824,-5.779950141906738,0.032999999821186066
1753031633491,8.019000053405762,-6.4930500984191895,0.27300000190734863
1753031633558,8.536050796508789,,
1753031633559,,-7.165950298309326,0.38700002431869507
1753031633626,7.903950214385986,,0.6840000152587891
1753031633628,,-6.228000164031982,
1753031633694,7.210050106048584,,
1753031633695,7.059000492095947,-5.409000396728516,-0.3439500033855438
1753031633762,7.2360005378723145,-5.413950443267822,-0.27000001072883606
1753031633827,7.372950553894043,,0.032999999821186066
1753031633828,,-6.460050106048584,
1753031633894,8.545050621032715,,
1753031633895,,,0.9040500521659851
1753031633896,,-6.271050453186035,
1753031633962,8.016000747680664,,-1.437000036239624
1753031633963,,-6.043050289154053,
1753031634029,6.885000228881836,-4.581000328063965,0.6630000472068787
1753031634096,7.452000141143799,,-0.08505000174045563
1753031634097,,-5.93595027923584,
1753031634164,8.947050094604492,,-0.18300001323223114
1753031634167,,-7.278000354766846,
1753031634232,9.064949989318848,-5.455050468444824,0.019050000235438347
1753031634299,7.165050506591797,-4.207950115203857,-1.516050100326538
1753031634365,7.5450005531311035,,0.1579500138759613
1753031634366,,-6.430950164794922,
1753031634432,7.843950271606445,,
1753031634434,,-6.169950485229492,0.9400500655174255
1753031634568,8.847000122070312,-6.5460004806518555,-0.46800002455711365
1753031634635,7.3660502433776855,-5.509950160980225,-0.7120500206947327
1753031634702,7.204950332641602,,0.15495000779628754
1753031634703,,-5.244000434875488,
1753031634704,,-5.37600040435791,
1753031634769,7.087950229644775,-6.361950397491455,-0.6550500392913818
1753031634836,8.480999946594238,-6.8550004959106445,0.6670500040054321
1753031634906,8.19105052947998,,0.34005001187324524
1753031634907,,-5.401950359344482,
1753031634970,7.882050514221191,,-0.7699500322341919
1753031634971,,-7.528950214385986,
1753031635037,6.9559502601623535,-6.916950225830078,1.2799500226974487
1753031635104,6.8680500984191895,,1.9330500364303589
1753031635105,,-6.711000442504883,1.7920501232147217
1753031635172,6.784050464630127,,0.6460500359535217
1753031635173,,-6.301950454711914,
1753031635239,7.122000217437744,,
1753031635240,7.162050247192383,,-0.27195000648498535
1753031635241,,-6.229950428009033,
1753031635306,7.471050262451172,,
1753031635307,7.473000526428223,-7.020000457763672,0.4519500136375427
1753031635374,7.654950141906738,-6.910050392150879,1.1149500608444214
1753031635444,8.830050468444824,-7.249050140380859,1.76295006275177
1753031635509,7.288950443267822,-6.586950302124023,0.16500000655651093
1753031635577,6.601950168609619,-5.344950199127197,-0.6670500040054321
1753031635644,5.791050434112549,-6.003000259399414,0.15105000138282776
1753031635711,6.87000036239624,-5.863950252532959,0.4069500267505646
1753031635778,8.200950622558594,,1.987950086593628
1753031635779,,-6.31095027923584,
1753031635845,8.457000732421875,,0.9670500755310059
1753031635846,,-7.0219502449035645,0.9040500521659851
1753031635913,8.596050262451172,-7.362000465393066,0.7770000100135803
1753031635979,7.746000289916992,,
1753031635980,7.393950462341309,-6.607950210571289,0.3730500042438507
1753031636047,7.630950450897217,,-0.025950001552700996
1753031636048,,-6.283050060272217,
1753031636115,7.795950412750244,-6.744000434875488,-0.909000039100647
1753031636181,7.666950225830078,-5.365950107574463,0.09300000220537186
1753031636182,,-4.729950428009033,
1753031636249,8.497050285339355,,-0.9280500411987305
1753031636251,,-4.519050121307373,
1753031636316,6.564000129699707,,
1753031636317,7.122000217437744,,-1.3180500268936157
1753031636320,,-5.038050174713135,
1753031636383,6.967950344085693,,2.2950000762939453
1753031636384,,-7.1509504318237305,
1753031636451,7.801050186157227,-6.925950527191162,2.2009501457214355
1753031636518,7.600050449371338,,-1.210050106048584
1753031636520,,-5.208000183105469,
1753031636585,7.981050491333008,,
1753031636587,,-4.636050224304199,-1.5040500164031982
1753031636653,7.380000114440918,-5.5410003662109375,0.10695000737905502
1753031636720,7.713000297546387,-7.318950176239014,0.8710500597953796
1753031636786,7.9609503746032715,,
1753031636787,8.107049942016602,-8.10105037689209,1.2439500093460083
1753031636854,7.861050605773926,,1.1910001039505005
1753031636855,,-6.694050312042236,
1753031636921,6.592950344085693,-4.947000026702881,0.7150500416755676
1753031636990,6.784050464630127,,
1753031636991,7.078050136566162,-5.4120001792907715,0.04500000178813934
1753031637055,7.344000339508057,,-0.31005001068115234
1753031637056,,-6.847050189971924,
1753031637123,9.34695053100586,,0.33195000886917114
1753031637124,,-6.760950088500977,
1753031637190,9.04995059967041,-5.920950412750244,-0.23100000619888306
1753031637257,7.16895055770874,,0.2650500237941742
1753031637259,,-6.985950469970703,
1753031637327,6.11400032043457,-6.091050148010254,1.2460500001907349
1753031637392,6.4800004959106445,-5.115000247955322,0.7630500197410583
1753031637460,7.957050323486328,-5.908950328826904,-1.492050051689148
1753031637529,8.977950096130371,-7.801950454711914,0.11205000430345535
1753031637593,9.103050231933594,,2.1510000228881836
1753031637594,,-6.901950359344482,
1753031637668,7.549950122833252,-4.902000427246094,0.10500000417232513
1753031637728,6.226950168609619,,-0.753000020980835
1753031637729,,-4.390050411224365,
1753031637796,6.124050140380859,-5.4120001792907715,-0.13305000960826874
1753031637863,8.526000022888184,,0.364050030708313
1753031637864,,,0.32505002617836
1753031637865,,-6.961950302124023,
1753031637931,9.462000846862793,,0.5119500160217285
1753031637934,,-6.319050312042236,
1753031637935,,-6.235050201416016,
1753031637998,9.067049980163574,-6.514950275421143,-0.12600000202655792
1753031638132,7.27500057220459,-5.890050411224365,0.41895002126693726
1753031638199,6.325050354003906,-4.4160003662109375,1.2490500211715698
1753031638266,7.300950527191162,-5.275050163269043,-0.2740500271320343
1753031638333,7.969050407409668,-6.984000205993652,0.024000000208616257
1753031638400,9.262950897216797,,
1753031638401,8.482950210571289,,1.443000078201294
1753031638402,,-6.241950511932373,
1753031638468,8.128950119018555,-4.906949996948242,-0.09000000357627869
1753031638535,7.231950283050537,,
1753031638536,7.2360005378723145,-5.761050224304199,-1.3920000791549683
1753031638602,6.676050186157227,,1.2199500799179077
1753031638603,,-5.479050159454346,
1753031638669,7.830000400543213,,0.8610000610351562
1753031638670,,-5.614950180053711,
1753031638737,8.074049949645996,-6.309000492095947,0.031050002202391624
1753031638804,7.861050605773926,-6.582000255584717,0.5430000424385071
1753031638872,7.507050514221191,-5.620050430297852,-0.2550000250339508
1753031638938,7.425000190734863,,
1753031638939,6.748050212860107,-5.871000289916992,-0.35295000672340393
1753031638940,,-5.569950103759766,
1753031639006,7.047000408172607,-5.967000484466553,0.6220500469207764
1753031639073,8.562000274658203,-6.163050174713135,0.7870500087738037
1753031639140,9.076950073242188,,0.6769500374794006
1753031639143,,-6.603000164031982,
1753031639207,7.99500036239624,,
1753031639208,7.81095027923584,-6.619950294494629,0.2989500164985657
1753031639276,7.002000331878662,-5.305950164794922,0.4900500178337097
1753031639341,7.288950443267822,,-0.5140500068664551
1753031639342,,-5.323050022125244,
1753031639409,6.853950500488281,,
1753031639410,8.260950088500977,-5.665050506591797,-0.3270000219345093
1753031639476,8.773050308227539,,0.5530500411987305
1753031639477,,,0.4759500324726105
1753031639478,,-6.235050201416016,
1753031639544,8.311050415039062,-6.193950176239014,0.25095000863075256
1753031639611,8.080950736999512,,
1753031639612,,-6.874050140380859,
1753031639679,7.1260504722595215,-5.93595027923584,0.39195001125335693
1753031639746,7.660050392150879,,
1753031639747,8.067000389099121,,0.7249500155448914
1753031639748,,-4.7220001220703125,
1753031639813,7.759950160980225,,
1753031639814,,-6.136950492858887,-0.9850500226020813
1753031639880,8.657999992370605,-6.8520002365112305,0.5290500521659851
1753031639948,7.993050575256348,,0.6600000262260437
1753031639949,,-5.5410003662109375,0.24900001287460327
1753031640015,8.055000305175781,,0.43800002336502075
1753031640016,,-5.742000102996826,
1753031640082,7.255950450897217,,1.141050100326538
1753031640083,,-6.594000339508057,
1753031640084,,-7.125000476837158,
1753031640149,8.21505069732666,-5.73900032043457,1.290000081062317
1753031640217,6.991950511932373,,
1753031640218,8.617050170898438,-5.098050117492676,-0.6360000371932983
1753031640284,7.224000453948975,,-0.17400000989437103
1753031640285,,-6.1459503173828125,
1753031640351,8.128950119018555,,1.1910001039505005
1753031640353,,-6.153000354766846,
1753031640418,7.521000385284424,-5.9070000648498535,-0.29100000858306885
1753031640486,7.44195032119751,,
1753031640487,,-5.658000469207764,0.5119500160217285
1753031640553,6.468000411987305,,0.531000018119812
1753031640554,,-5.479050159454346,
1753031640621,7.090050220489502,,-0.6190500259399414
1753031640623,,-6.004950523376465,
1753031640687,7.5859503746032715,-5.962050437927246,-0.40095001459121704
1753031640755,7.240950107574463,-6.1180500984191895,0.40905001759529114
1753031640822,7.7989501953125,,1.1700000762939453
1753031640823,,-6.721050262451172,
1753031640893,8.878050804138184,-4.9519500732421875,0.13095000386238098
1753031640957,7.654950141906738,-5.215050220489502,-1.4179500341415405
1753031641025,7.7410502433776855,-6.169950485229492,-0.3750000298023224
1753031641090,8.272950172424316,,
1753031641091,8.196000099182129,,0.41100001335144043
1753031641092,,-6.807000160217285,
1753031641159,8.22195053100586,-6.0169501304626465,0.07200000435113907
1753031641225,8.122050285339355,,
1753031641226,,-4.641000270843506,0.687000036239624
1753031641292,7.009050369262695,,0.34200000762939453
1753031641293,,-5.659950256347656,
1753031641360,6.648000240325928,,1.0770000219345093
1753031641361,,-6.12000036239624,
1753031641428,8.665050506591797,,1.1359500885009766
1753031641431,,-6.670050144195557,
1753031641495,8.449950218200684,-6.007050514221191,0.6700500249862671
1753031641562,8.617050170898438,-6.56505012512207,-0.10005000233650208
1753031641696,7.855950355529785,,0.07395000010728836
1753031641697,,-5.641050338745117,
1753031641764,8.563950538635254,,0.7770000100135803
1753031641767,,-6.358950138092041,
1753031641830,7.093050479888916,,0.8880000710487366
1753031641831,,-6.547950267791748,
1753031641899,8.016000747680664,-6.211050510406494,1.7320500612258911
1753031641965,7.6459503173828125,,0.7320000529289246
1753031641966,,-6.268050193786621,
1753031642033,7.507050514221191,-6.007050514221191,0.8760000467300415
1753031642100,7.73205041885376,-6.189000129699707,0.9379500150680542
1753031642167,7.842000484466553,-6.4860005378723145,1.3180500268936157
1753031642234,8.251049995422363,,1.7200500965118408
1753031642235,,-6.910050392150879,
1753031642301,8.217000007629395,,
1753031642302,8.50200080871582,,1.4089500904083252
1753031642305,,-6.268050193786621,
1753031642368,8.694000244140625,-6.57705020904541,1.1080501079559326
1753031642436,6.967950344085693,-5.683950424194336,0.7990500330924988
1753031642503,8.392050743103027,,1.3590000867843628
1753031642504,,-7.125000476837158,
1753031642570,7.04295015335083,,1.158000111579895
1753031642572,,-5.778000354766846,
1753031642637,7.954050540924072,,1.2660000324249268
1753031642638,,-5.8060503005981445,
1753031642704,6.949050426483154,,0.9000000357627869
1753031642705,,-5.653050422668457,
1753031642772,8.11500072479248,-6.31095027923584,0.612000048160553
1753031642844,7.6050004959106445,-6.237000465393066,0.8179500102996826
1753031642907,8.122050285339355,-6.12000036239624,1.1239500045776367
1753031642977,8.350950241088867,,
1753031642978,,-5.8660502433776855,1.0339500904083252
1753031643041,7.311000347137451,,0.8560500144958496
1753031643042,,-5.686950206756592,
1753031643108,7.669950485229492,-5.409000396728516,1.3729500770568848
1753031643176,6.432000160217285,-4.380000114440918,0.23895001411437988
1753031643243,9.108000755310059,,
1753031643244,8.457000732421875,-5.103000164031982,0.556950032711029
1753031643310,8.683950424194336,,
1753031643311,,-3.873000144958496,1.1460000276565552
1753031643378,9.175050735473633,,
1753031643381,,-4.063950061798096,0.037950001657009125
1753031643445,9.238950729370117,,-0.06405000388622284
1753031643446,,-4.275000095367432,
1753031643513,9.349050521850586,-4.73205041885376,0.025950001552700996
1753031643579,8.965950012207031,,0.37995001673698425
1753031643580,,-3.805950164794922,
1753031643647,9.262950897216797,,-1.0810500383377075
1753031643648,,-3.5380501747131348,
1753031643714,10.31100082397461,,-1.5280500650405884
1753031643715,,-3.775050163269043,
1753031643781,7.44705057144165,,
1753031643782,6.0259504318237305,-4.404000282287598,-1.6170001029968262
1753031643848,7.063950538635254,-2.8729500770568848,-1.2600001096725464
1753031643915,9.86400032043457,,
1753031643916,,-4.651050090789795,-1.5520501136779785
1753031643983,8.622000694274902,-4.6120500564575195,-2.6650500297546387
1753031644049,9.514050483703613,,
1753031644050,,-4.390050411224365,-0.7750500440597534
1753031644117,10.266000747680664,,-2.0789999961853027
1753031644118,,-3.2989501953125,
1753031644185,10.420950889587402,,-1.7650500535964966
1753031644186,,-4.62000036239624,
1753031644252,12.853050231933594,-8.58495044708252,-1.3489500284194946
1753031644253,,-8.770950317382812,
1753031644319,10.309050559997559,-9.621000289916992,-0.7000500559806824
1753031644394,7.228950500488281,-7.5319504737854,-0.7030500173568726
1753031644453,4.5199503898620605,-5.968950271606445,-0.4900500178337097
1753031644521,4.168950080871582,-3.805950164794922,-1.6050000190734863
1753031644589,4.969950199127197,-3.6190502643585205,-2.347050189971924
1753031644656,3.4870500564575195,,
1753031644657,,-5.191050052642822,-2.602950096130371
1753031644724,5.7960004806518555,-7.318950176239014,-3.166950225830078
1753031644791,6.160050392150879,,
1753031644792,,-9.56100082397461,-0.5020500421524048
1753031644841,6.066000461578369,-8.8410005569458,1.270050048828125
1753031644852,5.853000164031982,-8.599050521850586,1.2079501152038574
1753031644869,6.028050422668457,,
1753031644870,,-8.392950057983398,-0.20295001566410065
1753031644886,5.6260504722595215,-8.022000312805176,-0.999000072479248
1753031644903,7.909050464630127,,-1.6500000953674316
1753031644904,,-9.039000511169434,
1753031644924,6.070950508117676,-9.07800006866455,-0.6409500241279602
1753031644937,1.1179500818252563,,
1753031644938,,-7.957950592041016,3.4240500926971436
1753031644955,2.107950210571289,-7.297050476074219,6.099000453948975
1753031644972,3.2689502239227295,-7.3810505867004395,5.5489501953125
1753031644989,3.097050189971924,-7.033950328826904,3.418950080871582
1753031645006,3.094050168991089,,1.711050033569336
1753031645007,,-6.163050174713135,
1753031645023,4.164000034332275,,0.25095000863075256
1753031645024,,-5.719950199127197,
1753031645041,6.79395055770874,-6.3760504722595215,-0.46095001697540283
1753031645058,8.257950782775879,,
1753031645059,,-6.349950313568115,0.17400000989437103
1753031645075,8.281949996948242,-6.088950157165527,0.4620000123977661
1753031645092,7.867950439453125,-5.84505033493042,0.6079500317573547
1753031645109,8.445000648498535,-6.133950233459473,0.6600000262260437
1753031645125,9.55305004119873,-7.156050205230713,0.14295001327991486
1753031645143,9.670050621032715,-7.79295015335083,-0.7000500559806824
1753031645262,9.108000755310059,-7.993950366973877,-0.6240000128746033
1753031645328,9.190950393676758,,-0.8989500403404236
1753031645329,,-8.625,-1.0500000715255737
1753031645396,8.296050071716309,-6.823050498962402,-0.8850000500679016
1753031645405,7.111950397491455,,
1753031645406,6.79395055770874,,
1753031645407,,-7.012050151824951,0.9379500150680542
1753031645529,7.576050281524658,,
1753031645530,8.362950325012207,-7.234950542449951,1.665000081062317
1753031645597,7.938000202178955,,
1753031645598,7.72005033493042,,-1.1430000066757202
1753031645599,,-7.43595027923584,
1753031645664,8.038050651550293,,
1753031645665,8.919000625610352,-6.838050365447998,1.549950122833252
1753031645732,7.5859503746032715,,-0.7240500450134277
1753031645733,,-6.23205041885376,
1753031645799,6.66195011138916,-7.510050296783447,2.007000207901001
1753031645866,9.05505084991455,-7.005000114440918,-2.9070000648498535
1753031645934,7.624050140380859,-5.115000247955322,-0.9540000557899475
1753031646001,6.41295051574707,,
1753031646002,6.154950141906738,-4.432950019836426,0.7560000419616699
1753031646068,5.833950042724609,-3.724950075149536,-1.3180500268936157
1753031646135,7.948950290679932,-5.320950031280518,0.1770000010728836
1753031646202,9.943050384521484,,
1753031646203,10.522050857543945,-5.526000499725342,-2.2800002098083496
1753031646271,10.504950523376465,,-0.7219500541687012
1753031646272,,-6.901950359344482,
1753031646338,9.120000839233398,-6.8020501136779785,-0.009000000543892384
1753031646404,7.083000183105469,-4.843950271606445,-0.18105000257492065
1753031646471,7.392000198364258,-3.5910000801086426,0.1579500138759613
1753031646538,8.032950401306152,,
1753031646539,8.45895004272461,-2.7460501194000244,0.22005000710487366
1753031646610,10.444950103759766,-4.179000377655029,-0.8179500102996826
1753031646674,11.946000099182129,-4.342050075531006,-0.7720500230789185
1753031646675,,-4.014000415802002,
1753031646743,8.380050659179688,-4.7029500007629395,1.7830500602722168
1753031646810,10.7160005569458,,0.7969500422477722
1753031646811,,-6.003000259399414,
1753031646877,8.631000518798828,,-2.8950002193450928
1753031646878,,-4.519050121307373,
1753031646944,6.337050437927246,,
1753031646945,6.508950233459473,-3.496950149536133,1.4689500331878662
1753031647010,6.946950435638428,-3.3510000705718994,0.012000000104308128
1753031647077,8.529000282287598,,
1753031647078,9.064949989318848,-4.987950325012207,0.41895002126693726
1753031647146,10.687050819396973,,
1753031647147,9.787050247192383,-7.1010003089904785,1.4280000925064087
1753031647212,7.591050148010254,-5.653050422668457,-0.22905001044273376
1753031647280,7.023000240325928,-4.7059502601623535,0.6079500317573547
1753031647352,7.437000274658203,-2.820000171661377,1.2060000896453857
1753031647418,8.533050537109375,-2.284050226211548,2.263050079345703
1753031647481,8.608050346374512,,1.9549500942230225
1753031647482,,-3.2220001220703125,
1753031647552,9.754050254821777,-3.9060001373291016,1.366050124168396
1753031647621,10.500000953674316,,
1753031647622,,-4.420950412750244,3.0480000972747803
1753031647684,9.31605052947998,-3.8749501705169678,0.6670500040054321
1753031647751,10.17495059967041,-3.9469501972198486,0.9040500521659851
1753031647823,11.146050453186035,-3.7270500659942627,0.739050030708313
1753031647887,9.994950294494629,,0.556950032711029
1753031647888,,-2.728950023651123,
1753031647952,8.940000534057617,-1.8030000925064087,0.8400000333786011
1753031647953,,-1.7790000438690186,
1753031648019,10.23705005645752,,
1753031648020,10.717950820922852,-2.1000001430511475,1.1269500255584717
1753031648090,10.101000785827637,,
1753031648091,,-1.5829501152038574,-0.38895002007484436
1753031648155,8.746050834655762,,
1753031648156,8.75100040435791,-1.50600004196167,0.4230000078678131
1753031648223,10.531050682067871,-2.0899500846862793,-0.32505002617836
1753031648290,10.564950942993164,,-2.1070501804351807
1753031648291,,-2.1910500526428223,-1.1479500532150269
1753031648357,9.007050514221191,,
1753031648358,9.019050598144531,-1.741050124168396,-0.7510500550270081
1753031648427,9.193950653076172,,-0.8460000157356262
1753031648428,,-1.815000057220459,
1753031648490,9.94005012512207,-2.1090002059936523,-0.7240500450134277
1753031648563,11.830950736999512,-2.4870002269744873,-2.602950096130371
1753031648628,9.640950202941895,,
1753031648629,8.682000160217285,-1.6519501209259033,-2.863950252532959
1753031648696,7.519050121307373,,
1753031648697,7.815000534057617,-1.380000114440918,0.8779500126838684
1753031648761,9.493050575256348,,
1753031648762,,-0.2689500153064728,2.0530500411987305
1753031650412,10.170000076293945,-0.2569500207901001,1.749000072479248
1753031650413,,3.5659501552581787,
1753031650426,0.10095000267028809,-0.26205000281333923,10.428000450134277
1753031650490,0.7560000419616699,0.016950000077486038,9.832050323486328
1753031650636,0.2160000056028366,1.4190000295639038,9.129000663757324
1753031650647,0.2560500204563141,1.3980001211166382,10.429950714111328
1753031650709,0.2659500241279602,1.6390501260757446,9.28695011138916
1753031650776,1.4770500659942627,,
1753031650777,,2.4460501670837402,8.80305004119873
1753031650844,1.5700501203536987,2.4120001792907715,9.535950660705566
1753031650910,1.3350000381469727,,8.695950508117676
1753031650978,1.3240500688552856,3.112950086593628,9.009000778198242
1753031651045,1.9309500455856323,,9.46095085144043
1753031651046,,3.0649502277374268,
1753031651112,1.8000000715255737,3.274050235748291,8.164050102233887
1753031651179,2.032050132751465,,9.42495059967041
1753031651180,,2.9190001487731934,
1753031651247,1.8160500526428223,,8.869950294494629
1753031651248,,2.991000175476074,
1753031651315,1.7970000505447388,,8.152050018310547
1753031651317,,2.848050117492676,
1753031651382,1.8090001344680786,,9.021000862121582
1753031651383,,3.142050266265869,
1753031651449,2.53695011138916,,
1753031651450,2.5890002250671387,,8.136000633239746
1753031651452,,3.5460002422332764,
1753031651517,2.0869500637054443,2.8570501804351807,11.098050117492676
1753031651585,1.4740500450134277,3.0420000553131104,8.722050666809082
1753031651586,,3.0700502395629883,
1753031651652,1.5769500732421875,2.757000207901001,8.140049934387207
1753031651718,1.7299500703811646,,
1753031651719,,2.734950065612793,8.290950775146484
1753031651786,2.4079501628875732,,9.775050163269043
1753031651787,,2.7090001106262207,
1753031651853,0.9670500755310059,,9.72195053100586
1753031651854,,2.6920502185821533,
1753031651920,0.22800001502037048,2.227950096130371,9.550050735473633
1753031651988,1.1389501094818115,2.8909502029418945,8.538000106811523
1753031652055,3.0730502605438232,,9.279000282287598
1753031652056,,2.7709500789642334,
1753031652122,3.1249501705169678,,8.997000694274902
1753031652123,,2.874000072479248,
1753031652189,2.8879501819610596,,
1753031652190,,2.866950035095215,10.110000610351562
1753031652257,3.043950080871582,,
1753031652258,,2.9389500617980957,9.262950897216797
1753031652324,3.637050151824951,,8.539950370788574
1753031652325,,0.8160000443458557,
1753031652458,0.3349500298500061,,11.47605037689209
1753031652460,,3.9100501537323,
1753031652526,0.1680000126361847,4.1419501304626465,7.6710004806518555
1753031652593,-0.45795002579689026,2.367000102996826,8.866050720214844
1753031652660,0.6630000472068787,,9.07395076751709
1753031652662,,1.7779500484466553,
1753031652727,3.787950277328491,1.9360500574111938,10.959000587463379
1753031652794,1.807050108909607,,10.9350004196167
1753031652795,,0.8710500597953796,
1753031652861,2.2740001678466797,,8.650050163269043
1753031652862,,0.856950044631958,
1753031652929,1.8400501012802124,,9.97095012664795
1753031652931,,1.2799500226974487,
1753031652996,0.2950500249862671,0.33000001311302185,10.516950607299805
1753031653063,1.0770000219345093,,9.118950843811035
1753031653064,,-0.987000048160553,
1753031653131,6.589950084686279,,8.539950370788574
1753031653132,,-1.0519500970840454,
1753031653198,4.996950149536133,,8.509050369262695
1753031653200,,-2.63100004196167,
1753031653265,4.023000240325928,,
1753031653266,,,6.94605016708374
1753031653268,,-1.702950119972229,
1753031653334,17.398950576782227,,9.11205005645752
1753031653335,,-5.73900032043457,12.820950508117676
1753031653400,3.2569501399993896,-0.6430500149726868,11.677050590515137
1753031653467,5.434950351715088,,5.980050086975098
1753031653469,,-2.5570502281188965,
1753031653534,4.783950328826904,-2.562000036239624,8.983050346374512
1753031653602,3.0199501514434814,-1.0639500617980957,8.716950416564941
1753031653669,2.8980002403259277,-1.4800500869750977,11.41395092010498
1753031653736,2.0839500427246094,,11.719950675964355
1753031653738,,-1.2049500942230225,
1753031653803,1.3069500923156738,-0.8440500497817993,8.407950401306152
1753031653871,0.49995002150535583,0.43995001912117004,7.948950290679932
1753031653938,0.742050051689148,,10.528950691223145
1753031653939,,-0.6660000085830688,
1753031654005,1.1490000486373901,,10.81605052947998
1753031654007,,-0.5659500360488892,
1753031654073,0.8500500321388245,,10.191000938415527
1753031654074,,0.3949500322341919,
1753031654140,0.35895001888275146,,8.598000526428223
1753031654141,,0.364050030708313,
1753031654207,1.1370000839233398,,
1753031654208,,-0.08295000344514847,10.666950225830078
1753031654274,0.6490500569343567,,10.746000289916992
1753031654275,,-0.13005000352859497,
1753031654341,0.9910500645637512,,9.511950492858887
1753031654342,,0.08595000207424164,9.652950286865234
1753031654408,1.4070000648498535,,
1753031654409,0.7320000529289246,-0.2569500207901001,9.625950813293457
1753031654475,0.9910500645637512,,9.093000411987305
1753031654476,,-0.6780000329017639,
1753031654543,0.5869500041007996,,8.734050750732422
1753031654544,,-0.322050005197525,
1753031654611,0.43095001578330994,,9.397050857543945
1753031654612,,-0.5490000247955322,
1753031654677,0.8209500312805176,,9.98805046081543
1753031654678,,-0.5879999995231628,
1753031654745,0.4810500144958496,,10.054950714111328
1753031654746,,-0.15000000596046448,
1753031654812,1.0410000085830688,,10.359000205993652
1753031654814,,-0.34095001220703125,
1753031654879,0.6439500451087952,-0.24300001561641693,10.171950340270996
1753031654880,,0.012000000104308128,
1753031654946,1.1340000629425049,,
1753031654947,1.596000075340271,-0.18105000257492065,9.595050811767578
1753031655014,1.2570000886917114,,9.46095085144043
1753031655015,,-0.25995001196861267,
1753031655083,1.4860501289367676,,
1753031655084,1.5799500942230225,0.4330500066280365,9.568950653076172
1753031655151,1.3669500350952148,-0.35100001096725464,10.696050643920898
1753031655216,1.6270500421524048,-0.14205001294612885,10.21500015258789
1753031655284,1.9170000553131104,-0.29100000858306885,9.564000129699707
1753031655351,1.3930500745773315,-0.597000002861023,8.920950889587402
1753031655417,2.3239500522613525,,9.313050270080566
1753031655418,,0.32295000553131104,9.634050369262695
1753031655484,1.7230501174926758,,
1753031655485,0.8329500555992126,-0.5040000081062317,10.641000747680664
1753031655551,1.0219500064849854,,
1753031655552,,-0.1399500072002411,9.982950210571289
1753031655620,1.6680001020431519,,9.03795051574707
1753031655621,,-0.6570000052452087,9.2989501953125
1753031655687,1.1440500020980835,,9.069000244140625
1753031655688,,-0.5520000457763672,
1753031655754,1.3759500980377197,,
1753031655755,1.5870001316070557,-0.3769500255584717,10.021050453186035
1753031655821,1.659000039100647,,10.207950592041016
1753031655822,,-0.40800002217292786,
1753031655888,1.4050500392913818,,10.947000503540039
1753031655890,,-0.23100000619888306,
1753031656022,1.8829500675201416,,9.289050102233887
1753031656023,,0.12495000660419464,
1753031656090,1.596000075340271,-0.5920500159263611,9.457050323486328
1753031656157,1.7299500703811646,,9.4350004196167
1753031656158,,-0.736050009727478,
1753031656224,2.197050094604492,-1.1500500440597534,9.732000350952148
1753031656292,1.8259501457214355,-0.6810000538825989,10.027950286865234
1753031656358,1.5679501295089722,,
1753031656359,1.2229501008987427,-0.6210000514984131,9.495000839233398
1753031656426,1.9390500783920288,-0.931950032711029,9.02595043182373
1753031656427,,-0.15195000171661377,
1753031656493,1.765950083732605,-0.13305000960826874,9.351000785827637
1753031656560,1.2400500774383545,-0.42195001244544983,10.24905014038086
1753031656627,1.5870001316070557,,9.13800048828125
1753031656628,,0.2160000056028366,
1753031656695,1.599000096321106,,10.576050758361816
1753031656697,,-0.46095001697540283,
1753031656762,1.4860501289367676,-0.48000001907348633,8.901000022888184
1753031656829,1.7710500955581665,,9.610050201416016
1753031656830,,-0.625950038433075,9.643050193786621
1753031656897,1.102950096130371,,10.186050415039062
1753031656898,,-0.17595000565052032,
1753031656967,1.5529500246047974,-0.1399500072002411,9.8899507522583
1753031657033,1.6560001373291016,-0.22605000436306,8.880000114440918
1753031657100,1.4689500331878662,-0.37905001640319824,10.888050079345703
1753031657165,1.1539500951766968,,
1753031657166,1.5319501161575317,-0.7020000219345093,9.612000465393066
1753031657233,1.7299500703811646,,9.210000038146973
1753031657234,,-0.9300000667572021,9.268050193786621
1753031657300,1.4550000429153442,-0.7170000076293945,9.68595027923584
1753031657368,1.7970000505447388,0.07695000618696213,10.86405086517334
1753031657435,0.6510000228881836,,9.5910005569458
1753031657436,,-0.23805001378059387,
1753031657503,1.4410500526428223,,9.9660005569458
1753031657506,,0.13695000112056732,
1753031657570,1.2370500564575195,0.6940500140190125,9.265050888061523
1753031657571,,0.012000000104308128,
1753031657637,2.202000141143799,,9.088050842285156
1753031657638,,0.1579500138759613,
1753031657704,0.9600000381469727,,10.339950561523438
1753031657705,,-0.3240000009536743,
1753031657771,0.8659500479698181,,
1753031657772,0.42900002002716064,,9.46095085144043
1753031657775,,0.661050021648407,
1753031657839,0.673050045967102,0.8209500312805176,9.906000137329102
1753031657887,0.25394999980926514,0.921000063419342,11.031000137329102
1753031657973,1.165950059890747,,10.947000503540039
1753031657974,,0.6769500374794006,
1753031658040,1.1440500020980835,,
1753031658041,0.7519500255584717,0.8160000443458557,10.777050971984863
1753031658108,1.2829500436782837,-0.5130000114440918,9.154950141906738
1753031658175,1.3189500570297241,-0.3750000298023224,8.83395004272461
1753031658242,0.7350000143051147,-0.19005000591278076,10.048050880432129
1753031658309,0.5839500427246094,,
1753031658310,,-0.5299500226974487,9.837000846862793
1753031658376,0.559950053691864,,
1753031658377,1.5130500793457031,-0.5490000247955322,10.258050918579102
1753031658444,1.0390501022338867,-0.5899500250816345,10.708050727844238
1753031658511,0.8209500312805176,,9.495000839233398
1753031658512,,-0.9850500226020813,
1753031658579,1.218000054359436,,10.294050216674805
1753031658580,,-0.492000013589859,
1753031658645,1.64205002784729,,
1753031658646,1.4359500408172607,-0.364950031042099,10.55505084991455
1753031658715,0.8830500245094299,-0.12300000339746475,9.724950790405273
1753031658716,,0.18405000865459442,
1753031658782,1.2400500774383545,0.32100000977516174,9.681000709533691
1753031658849,1.9270501136779785,-0.19305001199245453,10.519050598144531
1753031658914,0.9910500645637512,,
1753031658915,,-0.597000002861023,10.131000518798828
1753031658984,1.5340501070022583,-0.29295000433921814,9.109950065612793
1753031659049,1.5289500951766968,,9.418050765991211
1753031659050,,-0.6330000162124634,
1753031659116,1.1749500036239624,,9.454050064086914
1753031659118,,-0.17100000381469727,
1753031659184,1.2250500917434692,-0.9030000567436218,9.069000244140625
1753031659251,0.7090500593185425,,
1753031659252,0.8659500479698181,-0.2639999985694885,10.51200008392334
1753031659319,1.3950001001358032,,9.945000648498535
1753031659320,,-0.6330000162124634,
1753031659321,,0.1680000126361847,
1753031659387,0.9550500512123108,0.2160000056028366,9.871050834655762
1753031659453,1.38795006275177,,
1753031659454,,-0.12300000339746475,10.036050796508789
1753031659587,1.0219500064849854,,9.97095012664795
1753031659588,,-0.19995000958442688,
1753031659653,1.6080000400543213,,10.174050331115723
1753031659654,,0.34995001554489136,
1753031659723,0.46695002913475037,-0.4420500099658966,9.327000617980957
1753031659789,1.3810501098632812,0.2160000056028366,10.146000862121582
1753031659856,1.2109500169754028,,10.093050003051758
1753031659857,,0.4020000100135803,
1753031659923,0.984000027179718,,9.4350004196167
1753031659925,,0.04800000041723251,
1753031659990,1.6540501117706299,,8.937000274658203
1753031659991,,0.6130500435829163,
1753031660059,1.6630500555038452,0.28995001316070557,10.306050300598145
1753031660125,1.1340000629425049,0.022050000727176666,9.172050476074219
1753031660192,1.8000000715255737,,9.093000411987305
1753031660194,,0.19395001232624054,
1753031660259,1.5079500675201416,,
1753031660260,,0.6630000472068787,10.01205062866211
1753031660327,1.081950068473816,0.43995001912117004,9.451950073242188
1753031660394,1.735050082206726,,9.418050765991211
1753031660395,,-0.06105000153183937,
1753031660461,1.0890001058578491,,10.050000190734863
1753031660463,,0.5070000290870667,
1753031660528,1.2679500579833984,,10.141050338745117
1753031660529,,-0.4440000355243683,
1753031660599,0.9480000734329224,0.08205000311136246,9.631050109863281
1753031660663,1.6990500688552856,,10.681950569152832
1753031660664,,0.3379500210285187,
1753031660731,1.2250500917434692,,
1753031660732,,0.23895001411437988,9.71505069732666
1753031660797,1.3240500688552856,,
1753031660798,1.2420001029968262,0.6820500493049622,10.165050506591797
1753031660864,1.5250500440597534,,9.922950744628906
1753031660865,,-0.6450000405311584,
1753031660932,0.6820500493049622,,10.054950714111328
1753031660933,,0.20805001258850098,
1753031661000,1.7929500341415405,,8.965950012207031
1753031661002,,0.015000000596046448,
1753031661003,,-0.15405000746250153,
1753031661067,1.9120501279830933,0.5770500302314758,9.96405029296875
1753031661134,1.5169501304626465,0.7849500179290771,11.758950233459473
1753031661202,1.158000111579895,,9.95205020904541
1753031661204,,-0.21900001168251038,
1753031661269,0.8590500354766846,,9.306000709533691
1753031661272,,-0.4939500093460083,
1753031661336,1.90500009059906,,9.246000289916992
1753031661337,,-0.10200000554323196,
1753031661403,1.6249500513076782,,
1753031661404,1.527000069618225,-0.8269500136375427,8.782050132751465
1753031661470,2.187000036239624,,
1753031661471,,-0.2639999985694885,10.117050170898438
1753031661537,0.4639500081539154,,
1753031661538,2.1510000228881836,,10.198050498962402
1753031661539,,-0.4129500091075897,
1753031661604,1.4959501028060913,0.1960500031709671,10.02405071258545
1753031661671,1.0459500551223755,,
1753031661672,,0.3040500283241272,9.676950454711914
1753031661738,1.8310500383377075,,
1753031661739,1.0720500946044922,-0.8269500136375427,8.965950012207031
1753031661806,2.4100501537323,-0.8719500303268433,7.570950508117676
1753031661874,2.616000175476074,0.004950000438839197,12.076951026916504
1753031661941,1.7470500469207764,,
1753031661942,3.4770002365112305,-0.016050001606345177,8.734050750732422
1753031662009,2.4430501461029053,-0.5010000467300415,6.906000137329102
1753031662076,1.4050500392913818,,9.97605037689209
1753031662078,,-1.0060499906539917,
1753031662142,1.4220000505447388,,8.535000801086426
1753031662143,,1.3620001077651978,
1753031662210,3.100950241088867,,11.086050987243652
1753031662211,,1.3140000104904175,
1753031662277,3.928950071334839,,14.302050590515137
1753031662278,,-0.05400000140070915,
1753031662344,3.6280500888824463,,7.627950191497803
1753031662347,,-0.5779500007629395,
1753031662414,0.8260500431060791,-1.071000099182129,5.428950309753418
1753031662481,0.742050051689148,1.5169501304626465,8.530950546264648
1753031662547,1.5250500440597534,,
1753031662548,1.8739501237869263,0.13695000112056732,9.576000213623047
1753031662614,1.234950065612793,1.2880500555038452,8.995050430297852
1753031662681,0.8449500203132629,,9.552000045776367
1753031662682,,1.5169501304626465,
1753031662748,1.2570000886917114,,8.794050216674805
1753031662749,,1.0080000162124634,
1753031662815,2.058000087738037,,9.402000427246094
1753031662816,,0.19200000166893005,
1753031662883,1.8859500885009766,0.2179500162601471,9.511950492858887
1753031662950,2.259000062942505,0.6820500493049622,8.997000694274902
1753031662951,,0.8620500564575195,
1753031663017,2.095950126647949,0.49800002574920654,8.638050079345703
1753031663151,1.672950029373169,0.5620500445365906,9.637950897216797
1753031663218,1.599000096321106,,9.909000396728516
1753031663219,,0.534000039100647,
1753031663286,1.9860000610351562,0.3540000021457672,9.97800064086914
1753031663353,1.5510001182556152,0.9360000491142273,10.102950096130371
1753031663420,1.3429501056671143,0.1080000028014183,8.893950462341309
1753031663487,1.390950083732605,,8.796000480651855
1753031663488,,0.547950029373169,
1753031663555,0.8449500203132629,1.194000005722046,10.054950714111328
1753031663622,0.4549500346183777,1.812000036239624,12.189000129699707
1753031663689,1.4239500761032104,,11.308950424194336
1753031663690,,0.2970000207424164,
1753031663756,1.5919500589370728,,
1753031663757,1.7970000505447388,-0.7720500230789185,9.805950164794922
1753031663824,0.3469500243663788,,
1753031663825,1.7569501399993896,0.6439500451087952,8.289000511169434
1753031663891,1.446000099182129,,
1753031663892,1.6180500984191895,1.258950114250183,8.85105037689209
1753031663959,2.3359501361846924,1.371000051498413,12.835050582885742
1753031664026,3.1780500411987305,,11.77500057220459
1753031664028,,-0.17595000565052032,
1753031664093,3.489000082015991,0.6850500106811523,8.077950477600098
1753031664160,2.971950054168701,,6.640050411224365
1753031664162,,-0.034950003027915955,
1753031664228,1.0339500904083252,0.7780500650405884,6.765000343322754
1753031664296,1.390950083732605,0.8620500564575195,10.488000869750977
1753031664362,0.8380500674247742,,
1753031664363,,-0.322050005197525,12.349950790405273
1753031664429,1.6230000257492065,,
1753031664430,2.9029500484466553,0.7969500422477722,10.897050857543945
1753031664496,2.092050075531006,,7.935000419616699
1753031664497,,0.9310500621795654,
1753031664564,1.8049501180648804,,8.386950492858887
1753031664566,,0.37800002098083496,
1753031664631,1.5049500465393066,,9.27495002746582
1753031664632,,0.5620500445365906,
1753031664698,1.1340000629425049,,
1753031664699,,1.0030500888824463,9.378000259399414
1753031664766,1.5079500675201416,,9.523950576782227
1753031664767,,1.204050064086914,
1753031664833,1.0939500331878662,,
1753031664834,0.8280000686645508,,9.708000183105469
1753031664837,,1.5769500732421875,
1753031664901,2.01705002784729,1.38795006275177,10.942950248718262
1753031664967,1.429050087928772,,9.519000053405762
1753031664968,,0.7680000066757202,
1753031665035,1.38795006275177,,9.43695068359375
1753031665037,,1.1059499979019165,
1753031665103,1.6470000743865967,0.9480000734329224,9.43695068359375
1753031665169,1.3519500494003296,,
1753031665170,,0.8350500464439392,9.918000221252441
1753031665236,1.218000054359436,,
1753031665237,0.5869500041007996,0.7470000386238098,10.117050170898438
1753031665304,1.4719500541687012,,9.543000221252441
1753031665305,,0.8380500674247742,
1753031665371,1.0939500331878662,,9.552000045776367
1753031665373,,0.8070000410079956,
1753031665438,1.1370000839233398,1.2400500774383545,9.946950912475586
1753031665505,0.9600000381469727,,
1753031665506,0.7590000629425049,0.7369500398635864,9.406050682067871
1753031665572,1.2450000047683716,,
1753031665573,,1.2660000324249268,9.613950729370117
1753031665640,0.8880000710487366,,9.712950706481934
1753031665642,,1.7779500484466553,
1753031665707,0.6679500341415405,,10.23900032043457
1753031665708,,1.894950032234192,
1753031665775,1.3759500980377197,1.258950114250183,10.354050636291504
1753031665843,0.6850500106811523,,
1753031665845,,1.429050087928772,8.953950881958008
1753031665924,1.055999994277954,,
1753031665925,0.9720000624656677,1.990950107574463,9.093000411987305
1753031665977,0.6340500116348267,1.9360500574111938,9.997050285339355
1753031666049,0.4140000343322754,,
1753031666052,0.703950047492981,,
1753031666053,0.9310500621795654,2.662950038909912,10.651050567626953
1753031666111,0.9049500226974487,1.3860000371932983,10.191000938415527
1753031666178,0.4020000100135803,1.4910000562667847,8.857950210571289
1753031666245,0.7680000066757202,,
1753031666246,0.6130500435829163,1.3309500217437744,8.152050018310547
1753031666313,1.0390501022338867,,
1753031666314,0.6150000095367432,1.9069501161575317,10.591050148010254
1753031666381,0.5220000147819519,1.64205002784729,10.476000785827637
1753031666402,2.1010501384735107,,10.58595085144043
1753031666403,,0.9190500378608704,
1753031666420,0.1680000126361847,,
1753031666421,,1.5480000972747803,10.28895092010498
1753031666438,0.18000000715255737,0.7320000529289246,10.165050506591797
1753031666453,0.8520000576972961,0.8860500454902649,8.77500057220459
1753031666470,1.4929500818252563,,9.327000617980957
1753031666471,,1.5319501161575317,
1753031666487,0.9070500135421753,,10.027950286865234
1753031666488,,1.4410500526428223,
1753031666504,-0.45600003004074097,,9.343950271606445
1753031666505,,1.7779500484466553,
1753031666522,0.7849500179290771,1.2829500436782837,9.12600040435791
1753031666539,1.3140000104904175,0.2179500162601471,8.028000831604004
1753031666556,0.7159500122070312,0.8299500346183777,8.217000007629395
1753031666573,0.8209500312805176,,9.367950439453125
1753031666574,,1.221000075340271,
1753031666590,0.9960000514984131,1.120050072669983,9.09000015258789
1753031666607,1.3999500274658203,,
1753031666608,,0.7780500650405884,9.241050720214844
1753031666624,0.5509500503540039,,
1753031666625,,1.158000111579895,9.897000312805176
1753031666642,0.8260500431060791,1.2780001163482666,10.207950592041016
1753031666660,1.6900501251220703,0.6490500569343567,10.146000862121582
1753031666676,0.4930500090122223,1.2829500436782837,10.218000411987305
1753031666693,-0.11100000888109207,0.531000018119812,11.124000549316406
1753031666738,2.0869500637054443,,
1753031666739,,0.700950026512146,11.128950119018555
1753031666753,0.5820000171661377,,10.84695053100586
1753031666757,,1.1770501136779785,
1753031666770,-0.022950001060962677,1.480950117111206,10.429950714111328
1753031666788,1.3210500478744507,0.21105000376701355,9.520950317382812
1753031666804,1.807050108909607,,9.844050407409668
1753031666805,,0.17505000531673431,
1753031666822,0.5650500059127808,0.909000039100647,10.701000213623047
1753031666838,0.6700500249862671,,
1753031666839,,1.3189500570297241,11.356950759887695
1753031666859,0.8929500579833984,0.26100000739097595,9.08595085144043
1753031666873,0.47895002365112305,0.5290500521659851,8.635950088500977
1753031666890,0.9889500737190247,0.8640000224113464,9.169050216674805
1753031666907,1.234950065612793,0.34005001187324524,8.535000801086426
1753031666925,1.1700000762939453,1.582050085067749,8.242950439453125
1753031666941,1.1230500936508179,,
1753031666942,,0.7729500532150269,8.47800064086914
1753031666965,0.8040000200271606,0.4639500081539154,8.401050567626953
1753031666978,1.821000099182129,1.7299500703811646,9.196050643920898
1753031666999,2.080049991607666,,
1753031667000,,0.909000039100647,9.832050323486328
1753031667010,-0.1969500035047531,,
1753031667011,,0.700950026512146,10.131000518798828
1753031667027,0.1099500060081482,,
1753031667028,,2.1730501651763916,9.826950073242188
1753031667044,2.1349501609802246,0.5770500302314758,9.361050605773926
1753031667061,0.7729500532150269,0.4639500081539154,10.54800033569336
1753031667079,-0.13005000352859497,1.4959501028060913,12.091050148010254
1753031667096,1.276050090789795,1.0429500341415405,10.714950561523438
1753031667113,1.7640000581741333,,9.172050476074219
1753031667114,,0.39705002307891846,
1753031667130,1.276050090789795,,10.195950508117676
1753031667131,,0.5070000290870667,
1753031667148,1.3860000371932983,0.8449500203132629,10.593000411987305
1753031667165,1.0669500827789307,1.201050043106079,9.375
1753031667183,1.599000096321106,0.5190000534057617,8.961000442504883
1753031667198,0.9769500494003296,0.13905000686645508,9.046950340270996
1753031667215,0.26295000314712524,1.1220000982284546,9.636000633239746
1753031667232,1.7179501056671143,0.7990500330924988,9.076050758361816
1753031667250,0.8550000190734863,0.18405000865459442,8.665050506591797
1753031667267,0.22500000894069672,1.0150500535964966,9.246000289916992
1753031667284,1.446000099182129,0.6649500131607056,8.84595012664795
1753031667301,1.0530000925064087,0.283050000667572,8.83395004272461
1753031667318,1.0939500331878662,0.5790000557899475,9.487950325012207
1753031667335,0.9100500345230103,1.048050045967102,9.33495044708252
1753031667352,0.7180500626564026,1.0600500106811523,9.196050643920898
1753031667369,1.5940500497817993,,
1753031667370,,-0.05400000140070915,9.540000915527344
1753031667386,1.0440000295639038,,
1753031667387,,0.8470500111579895,9.97605037689209
1753031667404,0.4020000100135803,0.853950023651123,10.497000694274902
1753031667421,1.3380000591278076,0.14100000262260437,10.207950592041016
1753031667438,1.0840500593185425,0.15105000138282776,10.354050636291504
1753031667454,1.1899501085281372,,
1753031667455,,0.703950047492981,11.148000717163086
1753031667473,0.48405003547668457,0.43095001578330994,11.104950904846191
1753031667490,0.8190000653266907,0.19200000166893005,10.195950508117676
1753031667507,1.1370000839233398,0.2179500162601471,9.909000396728516
1753031667524,0.8089500665664673,0.5839500427246094,9.495000839233398
1753031667541,1.1059499979019165,,
1753031667542,,0.31800001859664917,9.226950645446777
1753031667558,1.5720000267028809,,9.306000709533691
1753031667559,,0.37605002522468567,
1753031667575,1.3519500494003296,,
1753031667576,,0.3660000264644623,9.105000495910645
1753031667592,1.1509500741958618,,
1753031667593,,0.7300500273704529,9.43005084991455
1753031667610,1.2679500579833984,0.687000036239624,9.60300064086914
1753031667627,0.7060500383377075,0.4759500324726105,9.538050651550293
1753031667644,0.42600002884864807,,
1753031667645,,0.47895002365112305,9.469050407409668
1753031667662,0.6270000338554382,0.5959500074386597,9.658050537109375
1753031667678,1.2490500211715698,0.42600002884864807,9.72195053100586
1753031667695,1.5840001106262207,0.6199500560760498,10.038000106811523
1753031667712,0.7609500288963318,,
1753031667713,,0.5029500126838684,10.359000205993652
1753031667729,0.6580500602722168,,
1753031667730,,1.3380000591278076,9.922950744628906
1753031667747,1.3570500612258911,1.1850000619888306,8.944050788879395
1753031667764,1.290000081062317,-0.24795001745224,9.02595043182373
1753031667781,0.6340500116348267,0.9810000658035278,10.078950881958008
1753031667798,1.8480000495910645,1.6230000257492065,10.347000122070312
1753031667815,1.7040001153945923,0.7750500440597534,10.318050384521484
1753031667832,0.3139500021934509,1.1820000410079956,10.765050888061523
1753031667849,0.7560000419616699,,
1753031667850,,0.6679500341415405,10.042950630187988
1753031667867,1.6110000610351562,0.04800000041723251,9.031050682067871
1753031667884,1.1850000619888306,0.49995002150535583,9.538050651550293
1753031667900,0.6250500082969666,,
1753031667901,,0.8620500564575195,9.825000762939453
1753031667918,0.7920000553131104,,8.559000015258789
1753031667919,,0.44805002212524414,
1753031667935,1.8430501222610474,0.17205001413822174,8.461050033569336
1753031667952,1.9840500354766846,,
1753031667953,,0.5070000290870667,9.378000259399414
1753031667970,0.6439500451087952,0.8299500346183777,9.544950485229492
1753031667986,0.9190500378608704,,
1753031667987,,0.6679500341415405,9.868050575256348
1753031668004,1.4359500408172607,,
1753031668021,0.05295000225305557,0.29205000400543213,10.392000198364258
1753031668038,0.598050057888031,,10.419000625610352
1753031668039,,0.48795002698898315,
1753031668055,1.0530000925064087,0.4330500066280365,9.9660005569458
1753031668072,0.7830000519752502,,
1753031668073,,0.5860500335693359,10.37505054473877
1753031668089,0.814050018787384,,
1753031668090,,0.5650500059127808,10.165050506591797
1753031668107,0.6940500140190125,0.37800002098083496,9.66195011138916
1753031668124,1.1080501079559326,0.7320000529289246,9.643050193786621
1753031668141,1.2109500169754028,,
1753031668142,,0.6150000095367432,10.006950378417969
1753031668158,1.0219500064849854,0.9049500226974487,10.318050384521484
1753031668175,1.0390501022338867,,
1753031668176,,0.8419500589370728,10.545000076293945
1753031668193,0.7920000553131104,1.048050045967102,10.206000328063965
1753031668210,0.18195000290870667,0.5820000171661377,9.756000518798828
1753031668228,0.7210500240325928,0.5530500411987305,9.457050323486328
1753031668244,0.7519500255584717,0.5940000414848328,9.141000747680664
1753031668262,1.38795006275177,0.7969500422477722,9.421050071716309
1753031668278,0.8110500574111938,,
1753031668279,,0.7920000553131104,8.892000198364258
1753031668295,0.8520000576972961,,8.788949966430664
1753031668296,,0.8929500579833984,
1753031668312,1.6110000610351562,,
1753031668313,,0.42600002884864807,8.872950553894043
1753031668328,1.258950114250183,,
1753031668329,,0.9670500755310059,9.787050247192383
1753031668346,1.0170000791549683,,
1753031668347,,0.6130500435829163,10.380000114440918
1753031668364,0.8020500540733337,0.6370500326156616,10.477950096130371
1753031668381,0.5239500403404236,1.065000057220459,10.371000289916992
1753031668398,0.6769500374794006,0.6010500192642212,10.444950103759766
1753031668415,0.3949500322341919,,10.327950477600098
1753031668416,,0.6799500584602356,
1753031668432,0.7710000276565552,,
1753031668433,,0.7470000386238098,10.465950965881348
1753031668449,1.5559500455856323,,
1753031668450,,0.6649500131607056,9.973050117492676
1753031668467,0.7519500255584717,1.2250500917434692,10.689000129699707
1753031668484,1.111050009727478,0.4909500181674957,9.792000770568848
1753031668501,0.742050051689148,0.4020000100135803,9.214950561523438
1753031668518,0.9120000600814819,1.8550500869750977,9.841950416564941
1753031668535,1.3830000162124634,0.3829500079154968,9.361050605773926
1753031668552,0.05295000225305557,,
1753031668553,,0.5460000038146973,10.114950180053711
1753031668569,0.703950047492981,,
1753031668570,,1.4500501155853271,10.426050186157227
1753031668586,1.5580500364303589,,
1753031668587,,0.8190000653266907,9.303000450134277
1753031668604,-0.22395001351833344,0.7630500197410583,9.442049980163574
1753031668621,0.8689500689506531,0.7159500122070312,9.427950859069824
1753031668638,1.5840001106262207,0.4210500121116638,8.317950248718262
1753031668655,0.598050057888031,1.5910500288009644,9.861000061035156
1753031668672,1.294950008392334,,9.849000930786133
1753031668673,,0.6510000228881836,
1753031668689,0.3450000286102295,,
1753031668690,,0.4810500144958496,9.210000038146973
1753031668706,0.2749500274658203,,
1753031668707,,1.7779500484466553,10.368000030517578
1753031668724,1.738050103187561,0.7590000629425049,9.643050193786621
1753031668741,0.23205001652240753,,10.414050102233887
1753031668742,,0.4930500090122223,
1753031668758,-0.037050001323223114,1.990950107574463,11.12700080871582
1753031668775,1.201050043106079,1.4050500392913818,10.179000854492188
1753031668792,0.27300000190734863,,10.395000457763672
1753031668793,,0.8929500579833984,
1753031668809,0.6270000338554382,,
1753031668810,,1.6080000400543213,10.89900016784668
1753031668827,0.40005001425743103,,
1753031668828,,1.5289500951766968,10.320000648498535
1753031668845,0.9430500268936157,1.4959501028060913,10.921050071716309
1753031668862,0.7540500164031982,1.3429501056671143,10.82805061340332
1753031668878,0.29205000400543213,1.1299500465393066,10.471050262451172
1753031668895,0.6130500435829163,1.4620500802993774,9.793950080871582
1753031668912,1.0669500827789307,,10.00005054473877
1753031668913,,1.5870001316070557,
1753031668929,0.4759500324726105,,
1753031668930,,0.700950026512146,10.02405071258545
1753031668946,0.1579500138759613,,
1753031668947,,1.6110000610351562,9.504000663757324
1753031668963,0.9910500645637512,,
1753031668964,,1.2679500579833984,9.4350004196167
1753031668981,1.1730000972747803,1.231950044631958,9.121950149536133
1753031668998,0.30195000767707825,1.158000111579895,9.370050430297852
1753031669015,0.1770000010728836,1.3429501056671143,9.409049987792969
1753031669032,1.3999500274658203,,
1753031669033,,0.8830500245094299,9.193050384521484
1753031669049,0.814050018787384,,
1753031669050,,1.4170501232147217,9.502050399780273
1753031669066,0.11295000463724136,,
1753031669067,,1.6819500923156738,9.756000518798828
1753031669083,1.0410000085830688,,
1753031669084,,1.2660000324249268,9.02595043182373
1753031669101,1.0630500316619873,1.7370001077651978,9.379950523376465
1753031669118,0.9220500588417053,1.5769500732421875,10.282050132751465
1753031669135,0.42900002002716064,1.4550000429153442,9.780000686645508
1753031669152,0.22800001502037048,1.8570001125335693,9.910950660705566
1753031669169,1.1230500936508179,,
1753031669170,,1.6660500764846802,9.451950073242188
1753031669186,0.2370000183582306,,
1753031669187,,1.9650001525878906,10.158000946044922
1753031669204,0.5220000147819519,1.5360000133514404,10.206000328063965
1753031669220,1.3399500846862793,,
1753031669221,,1.6459500789642334,9.622050285339355
1753031669238,1.276050090789795,2.013000011444092,10.714950561523438
1753031669255,0.6100500226020813,1.8760501146316528,10.870950698852539
1753031669272,0.6820500493049622,1.0309500694274902,9.507000923156738
1753031669289,0.7920000553131104,,
1753031669290,,1.4650501012802124,9.367950439453125
1753031669306,0.9430500268936157,,
1753031669307,,1.5529500246047974,8.980050086975098
1753031669323,0.11805000901222229,,
1753031669324,,1.0170000791549683,8.563950538635254
1753031669341,0.9480000734329224,0.9880500435829163,8.511000633239746
1753031669358,1.8550500869750977,1.0720500946044922,8.527950286865234
1753031669375,0.6990000605583191,1.3159500360488892,8.80305004119873
1753031669392,0.6319500207901001,1.4119501113891602,9.391950607299805
1753031669409,0.8470500111579895,,
1753031669411,,1.2250500917434692,8.965950012207031
1753031669428,0.7900500297546387,1.1130000352859497,9.447000503540039
1753031669444,0.27300000190734863,,
1753031669445,,1.6849501132965088,10.111950874328613
1753031669461,0.1270500123500824,,
1753031669462,,1.276050090789795,9.592950820922852
1753031669478,0.6060000061988831,0.7129500508308411,9.643050193786621
1753031669495,0.7990500330924988,1.4070000648498535,10.143000602722168
1753031669512,0.48405003547668457,1.0530000925064087,9.853950500488281
1753031669529,0.7300500273704529,0.47895002365112305,10.171950340270996
1753031669546,1.1869500875473022,,
1753031669547,,1.2850500345230103,10.186050415039062
1753031669563,1.0270500183105469,,
1753031669564,,1.2880500555038452,10.471050262451172
1753031669580,0.06000000238418579,,
1753031669581,,0.9930000305175781,10.234050750732422
1753031669598,-0.006000000052154064,1.3090500831604004,9.765000343322754
1753031669615,1.5720000267028809,0.6919500231742859,10.042950630187988
1753031669632,1.1269500255584717,0.7750500440597534,10.069050788879395
1753031669649,-0.4440000355243683,,
1753031669650,,1.7089500427246094,10.52595043182373
1753031669666,0.6540000438690186,,
1753031669667,,0.7969500422477722,9.220050811767578
1753031669683,1.180050015449524,,
1753031669684,,-0.034950003027915955,8.23905086517334
1753031669700,1.434000015258789,,
1753031669701,,0.7159500122070312,8.740950584411621
1753031669718,0.6010500192642212,1.0630500316619873,8.707950592041016
1753031669735,0.8899500370025635,0.7560000419616699,8.59005069732666
1753031669752,1.327950119972229,0.7630500197410583,8.893950462341309
1753031669769,0.8760000467300415,0.8590500354766846,9.382050514221191
1753031669786,0.1489500105381012,,9.949050903320312
1753031669787,,1.3429501056671143,
1753031669803,0.7159500122070312,,
1753031669804,,1.0030500888824463,9.636000633239746
1753031669820,1.3069500923156738,,
1753031669821,,1.1269500255584717,9.600000381469727
1753031669838,0.11295000463724136,1.5720000267028809,10.545000076293945
1753031669855,0.20100000500679016,1.3639500141143799,10.177050590515137
1753031669872,0.7969500422477722,0.7279500365257263,9.610050201416016
1753031669889,1.4170501232147217,1.180050015449524,9.502050399780273
1753031669906,1.0170000791549683,1.4910000562667847,10.25100040435791
1753031669923,0.24900001287460327,,
1753031669924,,1.4020500183105469,10.56705093383789
1753031669940,1.0579500198364258,,
1753031669941,,1.3350000381469727,10.183950424194336
1753031669958,1.0150500535964966,1.2420001029968262,9.693000793457031
1753031669975,-0.3340500295162201,1.864050030708313,10.219950675964355
1753031669992,0.24000000953674316,1.3639500141143799,9.106950759887695
1753031670008,1.102950096130371,,
1753031670009,,0.8110500574111938,8.82194995880127
1753031670027,0.9670500755310059,,
1753031670028,,1.891050100326538,10.356000900268555
1753031670044,0.20595000684261322,1.9290001392364502,10.378050804138184
1753031670061,0.25200000405311584,1.6939500570297241,9.562050819396973
1753031670077,1.5360000133514404,,
1753031670078,,0.6460500359535217,9.327000617980957
1753031670095,-0.17595000565052032,2.001000165939331,9.664950370788574
1753031670112,-0.7309500575065613,2.0820000171661377,9.628950119018555
1753031670129,1.434000015258789,0.4140000343322754,8.164050102233887
1753031670146,0.9570000171661377,1.9410001039505005,8.949000358581543
1753031670163,0.04305000230669975,,10.86405086517334
1753031670164,,2.278050184249878,
1753031670180,-0.30300000309944153,,
1753031670181,,1.8019500970840454,9.499950408935547
1753031670197,1.1460000276565552,,
1753031670198,,1.5630000829696655,9.109950065612793
1753031670214,1.503000020980835,,
1753031670215,,1.8550500869750977,10.675050735473633
1753031670232,-0.4410000145435333,2.485950231552124,11.035950660705566
1753031670249,-0.5730000138282776,2.137050151824951,9.559050559997559
1753031670266,1.3980001211166382,1.0410000085830688,8.989950180053711
1753031670283,0.661050021648407,,
1753031670284,,2.416950225830078,9.658050537109375
1753031670300,-0.4729500114917755,,
1753031670301,,2.0650501251220703,11.361001014709473
1753031670317,0.7680000066757202,,
1753031670318,,1.3620001077651978,9.588000297546387
1753031670334,1.3090500831604004,,
1753031670335,,1.258950114250183,9.849000930786133
1753031670352,0.8520000576972961,2.640000104904175,10.588050842285156
1753031670369,-0.597000002861023,1.88100004196167,10.576050758361816
1753031670386,0.15600000321865082,0.7920000553131104,8.79104995727539
1753031674918,1.4140501022338867,,
1753031674919,0.11505000293254852,,7.332000255584717
1753031674920,,1.204050064086914,9.622050285339355
1753031674921,,1.120050072669983,
1753031675002,0.7249500155448914,4.981950283050537,5.854950428009033
1753031675044,1.2300000190734863,5.841000080108643,6.6160502433776855
1753031675149,-0.09000000357627869,6.517950534820557,8.089950561523438
1753031675209,0.019050000235438347,6.444000244140625,9.753000259399414
1753031675253,1.5360000133514404,5.853000164031982,7.819950580596924
1753031675318,-0.36705002188682556,5.884050369262695,5.665950298309326
1753031675386,-0.9649500250816345,6.2910003662109375,7.3720502853393555
1753031675387,-0.8749500513076782,,
1753031675388,,6.415950298309326,8.583000183105469
1753031675453,-0.3150000274181366,6.552000522613525,8.665050506591797
1753031675520,0.8449500203132629,6.801000118255615,6.475050449371338
1753031675587,-0.5470499992370605,6.538050174713135,6.4009504318237305
1753031675655,-1.0879501104354858,5.662050247192383,6.553950309753418
1753031675722,-0.4510500133037567,5.587950229644775,7.473000526428223
1753031675789,-0.5659500360488892,6.813000202178955,6.055950164794922
1753031675856,0.6649500131607056,7.8510003089904785,6.276000499725342
1753031675924,1.0120500326156616,7.693050384521484,7.243050575256348
1753031675991,1.1080501079559326,6.30495023727417,5.794950485229492
1753031676058,-0.016050001606345177,6.265050411224365,9.010950088500977
1753031676193,2.187000036239624,,
1753031676194,,6.267000198364258,6.9150004386901855
1753031676260,-1.53000009059906,6.493950366973877,6.988950252532959
1753031676328,-0.6589500308036804,,6.844050407409668
1753031676329,,6.721950531005859,
1753031676398,0.2749500274658203,7.582950592041016,7.594950199127197
1753031676464,0.8040000200271606,,
1753031676465,0.8640000224113464,6.207000255584717,7.308000564575195
1753031676531,0.2560500204563141,6.066000461578369,7.588050365447998
1753031676598,1.0150500535964966,6.106950283050537,9.271950721740723
1753031676664,0.8230500221252441,,
1753031676665,,6.033000469207764,
1753031676732,1.9720500707626343,5.998950481414795,5.74500036239624
1753031676799,0.6540000438690186,5.419950485229492,7.80495023727417
1753031676866,0.3469500243663788,,
1753031676867,,4.120950222015381,10.093050003051758
1753031676934,1.6110000610351562,5.700000286102295,8.569050788879395
1753031677001,1.4239500761032104,5.947050094604492,6.589950084686279
1753031677068,1.4650501012802124,5.947050094604492,7.249950408935547
1753031677135,0.7609500288963318,,
1753031677136,,5.329050064086914,6.931950092315674
1753031677203,1.162950038909912,,7.81695032119751
1753031677207,,5.989950180053711,
1753031677270,1.065000057220459,6.069000244140625,7.674000263214111
1753031677338,1.64205002784729,6.535050392150879,6.300000190734863
1753031677405,1.7640000581741333,6.9559502601623535,9.082950592041016
1753031677471,2.367000102996826,,
1753031677472,2.1319501399993896,6.207000255584717,7.888950347900391
1753031677539,1.4220000505447388,4.747950077056885,6.50100040435791
1753031677606,1.582050085067749,5.583000183105469,5.910000324249268
1753031677673,1.7419500350952148,,7.14300012588501
1753031677674,,5.9350504875183105,
1753031677741,2.5009500980377197,,7.612050533294678
1753031677742,,7.1170501708984375,
1753031677743,,7.087950229644775,
1753031677807,2.5440001487731934,,
1753031677808,3.301950216293335,5.467950344085693,8.515950202941895
1753031677875,2.158950090408325,5.109000205993652,9.648000717163086
1753031677876,,5.491950035095215,
1753031677942,1.3519500494003296,,
1753031677943,,5.0590500831604,5.611050128936768
1753031677944,,5.281050205230713,
1753031678009,1.0720500946044922,,
1753031678010,1.2469500303268433,5.841000080108643,7.083000183105469
1753031678077,1.3069500923156738,5.218950271606445,7.9830002784729
1753031678144,1.1389501094818115,,8.125950813293457
1753031678148,,6.1710004806518555,
1753031678214,1.6009501218795776,6.487050533294678,8.855999946594238
1753031678281,0.547950029373169,6.001950263977051,8.077950477600098
1753031678347,0.7780500650405884,5.473050117492676,7.470000267028809
1753031678414,0.6700500249862671,5.776950359344482,7.333950519561768
1753031678480,0.6559500098228455,,
1753031678481,0.843000054359436,5.961000442504883,8.293950080871582
1753031678547,0.8740500211715698,,
1753031678548,0.8929500579833984,5.7019500732421875,7.0159502029418945
1753031678615,0.8899500370025635,5.638050079345703,8.358000755310059
1753031678682,0.7090500593185425,,7.4920501708984375
1753031678683,,7.087950229644775,8.27400016784668
1753031678750,0.8230500221252441,,
1753031678751,,6.01800012588501,7.651950359344482
1753031678817,1.6009501218795776,,
1753031678819,,5.64300012588501,6.115950107574463
1753031678884,1.6800000667572021,5.662050247192383,7.444050312042236
1753031678951,1.0219500064849854,,
1753031678952,1.0909500122070312,6.523050308227539,7.7500505447387695
1753031679019,0.8040000200271606,,
1753031679020,1.111050009727478,5.760000228881836,7.61400032043457
1753031679086,1.6560001373291016,,
1753031679087,1.3090500831604004,5.9659504890441895,8.56605052947998
1753031679153,0.9550500512123108,,
1753031679154,1.158000111579895,5.164050102233887,8.4660005569458
1753031679221,0.8089500665664673,6.145050525665283,6.195000171661377
1753031679288,1.6110000610351562,7.303050518035889,6.363000392913818
1753031679355,1.4220000505447388,,
1753031679357,,7.789050579071045,7.123050212860107
1753031679422,1.2300000190734863,6.802950382232666,8.053950309753418
1753031679489,0.8209500312805176,,9.133950233459473
1753031679490,,6.267000198364258,
1753031679556,1.2610501050949097,,
1753031679557,1.3950001001358032,5.535000324249268,7.591950416564941
1753031679623,0.364050030708313,,
1753031679624,0.5149500370025635,6.57105016708374,6.574950218200684
1753031679758,0.8350500464439392,6.175950527191162,7.7719502449035645
1753031679824,0.5410500168800354,7.320000171661377,7.719000339508057
1753031679891,1.0770000219345093,7.291050434112549,6.709050178527832
1753031679959,-0.0010500000789761543,7.31505012512207,7.33905029296875
1753031680026,-0.2550000250339508,7.063950538635254,6.757050514221191
1753031680096,-0.8080500364303589,8.104949951171875,7.674000263214111
1753031680163,-0.8530500531196594,8.587950706481934,8.832000732421875
1753031680228,0.5790000557899475,5.844000339508057,7.0660505294799805
1753031680295,0.11295000463724136,6.349050521850586,5.460000038146973
1753031680363,-0.004050000105053186,7.308000564575195,6.163950443267822
1753031680430,1.0890001058578491,,
1753031680431,,6.958950519561768,6.757050514221191
1753031680499,1.6939500570297241,5.797950267791748,8.072999954223633
1753031680565,0.7900500297546387,6.655050277709961,9.339000701904297
1753031680633,1.234950065612793,,6.693000316619873
1753031680634,,,6.037050247192383
1753031680635,,5.485050201416016,
1753031680701,0.1770000010728836,6.592950344085693,5.623050212860107
1753031680767,1.1610000133514404,6.958950519561768,6.457950115203857
1753031680834,1.0320000648498535,6.760050296783447,7.533000469207764
1753031680901,0.9139500260353088,6.592950344085693,8.56605052947998
1753031680969,-0.19500000774860382,,7.576050281524658
1753031680970,,6.820050239562988,
1753031681036,0.06495000422000885,,5.785950183868408
1753031681037,,6.064050197601318,5.563050270080566
1753031681104,0.04305000230669975,7.432950496673584,6.78795051574707
1753031681170,0.3829500079154968,,7.642950534820557
1753031681171,,6.9559502601623535,
1753031681238,0.09405000507831573,,8.269950866699219
1753031681239,,6.69795036315918,
1753031681304,0.2779500186443329,,
1753031681305,0.531000018119812,6.544950485229492,7.16895055770874
1753031681372,0.015000000596046448,,6.223950386047363
1753031681373,,7.1449503898620605,
1753031681439,0.1290000081062317,,6.77400016784668
1753031681440,,6.631050109863281,7.33905029296875
1753031681507,-0.36705002188682556,,
1753031681508,,7.255050182342529,9.004050254821777
1753031681574,0.8740500211715698,6.8680500984191895,8.563950538635254
1753031681641,1.3830000162124634,,
1753031681642,,6.472950458526611,4.498050212860107
1753031681708,1.2469500303268433,5.0370001792907715,6.954000473022461
1753031681776,0.2659500241279602,,
1753031681779,,8.81100082397461,5.209050178527832
1753031681846,2.955000162124634,5.104050159454346,6.4009504318237305
1753031681912,-0.47700002789497375,6.648000240325928,9.520950317382812
1753031681979,1.371000051498413,5.926950454711914,5.908050060272217
1753031682045,0.024000000208616257,,
1753031682046,0.531000018119812,6.789000511169434,6.139950275421143
1753031682112,0.9930000305175781,3.9750001430511475,5.439000129699707
1753031682179,-2.1880500316619873,,9.559050559997559
1753031682180,,9.6670503616333,
1753031682186,-1.2000000476837158,9.778050422668457,11.19105052947998
1753031682246,1.8550500869750977,,
1753031682247,2.0149500370025635,5.554050445556641,6.973050117492676
1753031682314,-0.9750000238418579,7.906050205230713,7.36305046081543
1753031682382,0.7060500383377075,5.5489501953125,7.063950538635254
1753031682449,-0.4849500358104706,,6.69795036315918
1753031682450,,7.528050422668457,6.091950416564941
1753031682516,-0.36195001006126404,,
1753031682517,,7.380000114440918,6.859950542449951
1753031682584,-0.3940500319004059,,9.492000579833984
1753031682586,,6.978000164031982,
1753031682651,1.024049997329712,,5.982000350952148
1753031682652,,6.106950283050537,
1753031682717,0.28995001316070557,,
1753031682718,-0.09405000507831573,5.817000389099121,5.797950267791748
1753031682785,0.3160500228404999,,4.969950199127197
1753031682786,,5.908050060272217,
1753031682852,0.3379500210285187,,
1753031682853,,,6.1620001792907715
1753031682854,,7.123950481414795,6.075000286102295
1753031682920,-0.08295000344514847,,9.402000427246094
1753031682921,,8.113950729370117,
1753031682987,0.283050000667572,6.363000392913818,10.332000732421875
1753031683054,-0.6349500417709351,6.532950401306152,10.063950538635254
1753031683121,0.5290500521659851,,
1753031683122,,5.016000270843506,5.484000205993652
1753031683188,0.06000000238418579,,4.908000469207764
1753031683189,,5.478000164031982,5.824050426483154
1753031683322,0.07395000010728836,,
1753031683323,0.05295000225305557,7.336950302124023,7.51800012588501
1753031683390,0.48795002698898315,7.581000328063965,7.309950351715088
1753031683460,0.775950014591217,7.717050552368164,10.060050010681152
1753031683524,1.158000111579895,,
1753031683525,,6.918000221252441,6.693000316619873
1753031683591,0.4549500346183777,,
1753031683592,-0.6040500402450562,5.829000473022461,5.2860002517700195
1753031683662,-0.23805001378059387,6.502050399780273,5.230950355529785
1753031683728,0.07395000010728836,6.148050308227539,6.592050075531006
1753031683796,-0.5419500470161438,7.408950328826904,8.976000785827637
1753031683861,0.6649500131607056,6.4710001945495605,8.358000755310059
1753031683929,-0.7069500088691711,7.063950538635254,7.630950450897217
1753031683995,0.40005001425743103,5.989950180053711,5.401050090789795
1753031684063,-0.23805001378059387,7.147950172424316,7.279050350189209
1753031684129,1.2880500555038452,,5.974950313568115
1753031684130,,5.5759501457214355,
1753031684197,-0.05400000140070915,,
1753031684198,0.5119500160217285,6.541950225830078,7.276950359344482
1753031684265,0.07905000448226929,,7.276950359344482
1753031684266,,6.838950157165527,
1753031684332,0.41700002551078796,,
1753031684333,0.16305001080036163,6.68595027923584,7.006050109863281
1753031684399,0.43605002760887146,5.821950435638428,6.436950206756592
1753031684400,,6.715050220489502,
1753031684465,-0.039000000804662704,6.568950176239014,8.740950584411621
1753031684533,-0.4729500114917755,6.319950103759766,6.172950267791748
1753031684600,-1.1209501028060913,,
1753031684601,-0.3049500286579132,7.927950382232666,8.1739501953125
1753031684667,0.04605000093579292,,
1753031684668,-0.10905000567436218,6.987000465393066,7.759950160980225
1753031684736,0.10605000704526901,6.712050437927246,8.314949989318848
1753031684802,-0.7290000319480896,7.018950462341309,7.387050151824951
1753031684870,-0.2950500249862671,6.748050212860107,7.399050235748291
1753031684937,-0.2569500207901001,6.403950214385986,6.999000549316406
1753031685004,-0.28395000100135803,,7.8319501876831055
1753031685005,,7.1449503898620605,
1753031685070,0.38100001215934753,7.224000453948975,7.152000427246094
1753031685139,0.32100000977516174,6.349050521850586,7.449000358581543
1753031685206,0.49800002574920654,,6.2719502449035645
1753031685207,,6.097050189971924,
1753031685273,-0.46995002031326294,,8.119050025939941
1753031685274,,7.509000301361084,
1753031685340,-0.7069500088691711,7.291050434112549,7.975050449371338
1753031685407,-0.08295000344514847,,
1753031685408,-0.753000020980835,6.565950393676758,6.949050426483154
1753031685475,-0.0990000069141388,,
1753031685478,,7.41795015335083,6.76200008392334
1753031685544,0.2779500186443329,7.411050319671631,7.087950229644775
1753031685611,0.7399500608444214,6.436950206756592,6.468000411987305
1753031685677,-0.004050000105053186,6.573000431060791,7.963050365447998
1753031685744,0.6820500493049622,,
1753031685745,,6.760050296783447,6.403050422668457
1753031685812,0.6580500602722168,,
1753031685813,,6.382050514221191,6.151950359344482
1753031685879,0.9690000414848328,5.880000114440918,5.614050388336182
1753031685945,0.9859500527381897,,
1753031685946,,7.107000350952148,7.222050189971924
1753031686014,0.6460500359535217,6.856050491333008,7.176000118255615
1753031686082,0.9619500637054443,,
1753031686083,0.039000000804662704,6.1620001792907715,7.012950420379639
1753031686148,0.3930000066757202,5.920050144195557,6.41295051574707
1753031686149,,5.94195032119751,
1753031686215,0.10305000841617584,,7.552050590515137
1753031686216,,6.214950084686279,
1753031686282,-0.18495000898838043,6.916050434112549,7.477950572967529
1753031686349,0.12000000476837158,,
1753031686351,,6.415950298309326,8.551950454711914
1753031686417,0.12000000476837158,6.94005012512207,7.26900053024292
1753031686484,0.5359500050544739,5.707050323486328,7.237950325012207
1753031686551,-0.6949500441551208,,7.0159502029418945
1753031686552,,6.094950199127197,
1753031686618,0.3949500322341919,,6.669000148773193
1753031686620,,6.38700008392334,
1753031686685,0.17505000531673431,6.813000202178955,8.257950782775879
1753031686752,-0.37905001640319824,6.325050354003906,8.431950569152832
1753031686887,-1.0399500131607056,,
1753031686888,0.07200000435113907,6.733950138092041,8.700000762939453
1753031686955,-0.8509500622749329,,
1753031686956,-0.019950000569224358,7.050000190734863,7.849050521850586
1753031687021,-0.5160000324249268,6.715050220489502,6.811950206756592
1753031687089,0.3570000231266022,,
1753031687090,-0.5730000138282776,7.033050537109375,8.674050331115723
1753031687156,0.027000000700354576,,7.3720502853393555
1753031687157,,7.45395040512085,
1753031687223,-0.19995000958442688,,6.910950183868408
1753031687224,,7.234050273895264,
1753031687290,-0.019950000569224358,,
1753031687291,-0.11805000901222229,,
1753031687293,,6.301050186157227,6.709050178527832
1753031687360,0.09600000083446503,5.944050312042236,5.760000228881836
1753031687426,0.9690000414848328,,
1753031687427,0.6130500435829163,6.8680500984191895,7.7719502449035645
1753031687495,0.5890500545501709,6.2310004234313965,5.290950298309326
1753031687560,1.3759500980377197,,7.734000205993652
1753031687561,,6.6910505294799805,
1753031687629,0.29205000400543213,4.591950416564941,8.868000030517578
1753031687694,0.283050000667572,5.086950302124023,7.669050216674805
1753031687695,,5.899050235748291,
1753031687761,-1.6470000743865967,,
1753031687762,-1.1380500793457031,8.251049995422363,4.7470502853393555
1753031687831,-2.581050157546997,,
1753031687832,,7.690950393676758,7.947000503540039
1753031687837,-1.2190500497817993,,
1753031687838,,6.355950355529785,6.867000102996826
1753031687963,-1.321950078010559,6.444000244140625,6.859950542449951
1753031688031,-1.546950101852417,6.621000289916992,8.265000343322754
1753031688099,-2.1880500316619873,5.509050369262695,5.038950443267822
1753031688165,-1.0420500040054321,6.736050128936768,7.042050361633301
1753031688235,-1.0180500745773315,5.961000442504883,7.224000453948975
1753031688299,-0.9540000557899475,7.260000228881836,7.023000240325928
1753031688366,-0.2689500153064728,6.03000020980835,8.112000465393066
1753031688433,-0.5080500245094299,5.8030500411987305,6.862950325012207
1753031688501,-0.753000020980835,6.157050132751465,7.570950508117676
1753031688568,-0.6829500198364258,6.585000514984131,8.430000305175781
1753031688635,0.17295001447200775,6.577950477600098,7.558950424194336
1753031688702,0.30705001950263977,6.211950302124023,7.018050193786621
1753031688770,0.24000000953674316,6.01800012588501,7.201950550079346
1753031688837,-0.11400000751018524,,7.630950450897217
1753031688838,,6.789000511169434,
1753031688904,0.7399500608444214,5.944050312042236,7.648050308227539
1753031688971,0.4600500166416168,5.785950183868408,7.498950481414795
1753031689040,0.16995000839233398,,
1753031689041,0.10605000704526901,,7.609050273895264
1753031689043,,6.157050132751465,
1753031689108,0.012000000104308128,6.106950283050537,7.192950248718262
1753031689174,-0.1469999998807907,6.484950542449951,7.89900016784668
1753031689240,-0.12600000202655792,,8.358000755310059
1753031689241,,6.022950172424316,
1753031689308,-0.7740000486373901,5.791050434112549,8.935050010681152
1753031689375,-0.7480500340461731,6.364950180053711,7.41795015335083
1753031689444,0.33000001311302185,5.926950454711914,5.829000473022461
1753031689509,0.1960500031709671,,
1753031689510,-0.4459500312805176,6.655050277709961,6.918000221252441
1753031689577,-0.5250000357627869,7.389000415802002,7.408050537109375
1753031689645,0.17505000531673431,7.108950138092041,7.888950347900391
1753031689711,1.055999994277954,5.719050407409668,8.368050575256348
1753031689779,-1.4869500398635864,5.94195032119751,9.379950523376465
1753031689846,-0.6300000548362732,6.006000518798828,7.639950275421143
1753031689913,0.8350500464439392,5.688000202178955,6.157050132751465
1753031689980,0.7879500389099121,,
1753031689981,-0.625950038433075,6.4270501136779785,6.300000190734863
1753031690048,-0.43695002794265747,7.210050106048584,8.21505069732666
1753031690115,0.1080000028014183,6.307950496673584,8.61405086517334
1753031690182,-0.4320000112056732,5.6260504722595215,8.1739501953125
1753031690249,-0.5749500393867493,5.1660003662109375,6.98205041885376
1753031690316,-1.152000069618225,,
1753031690317,-1.6930500268936157,5.5159502029418945,6.730950355529785
1753031690384,-1.5660001039505005,6.202950477600098,8.676000595092773
1753031690451,-0.6190500259399414,5.779050350189209,7.107000350952148
1753031690518,-0.8509500622749329,6.349050521850586,9.256050109863281
1753031690585,-1.0639500617980957,,
1753031690586,-0.3460500240325928,5.383950233459473,9.31095027923584
1753031690655,-1.01295006275177,4.732950210571289,7.803000450134277
1753031690720,-1.1020500659942627,5.131050109863281,7.204950332641602
1753031690787,-0.8959500193595886,,
1753031690788,-0.597000002861023,5.869950294494629,8.004000663757324
1753031690855,-0.48705002665519714,4.981950283050537,6.931950092315674
1753031690922,-1.0920000076293945,6.487050533294678,8.206950187683105
1753031690989,-1.210050106048584,6.195000171661377,9.69795036315918
1753031691056,-1.4850000143051147,5.2260003089904785,6.717000484466553
1753031691126,0.07200000435113907,5.427000045776367,6.568050384521484
1753031691190,-0.7380000352859497,5.4370503425598145,8.437050819396973
1753031691325,-0.12300000339746475,5.499000072479248,7.096950531005859
1753031691392,0.14595000445842743,5.986950397491455,7.14300012588501
1753031691460,-0.4249500334262848,6.319950103759766,8.917950630187988
1753031691527,-0.7330500483512878,4.872000217437744,8.54699993133545
1753031691594,-0.47505003213882446,5.350950241088867,7.777050495147705
1753031691661,-0.9370500445365906,5.509050369262695,8.032950401306152
1753031691728,-0.7860000133514404,,
1753031691729,-0.37905001640319824,4.968000411987305,7.482000350952148
1753031691796,-0.48900002241134644,5.671050071716309,7.882050514221191
1753031691863,-0.8509500622749329,6.492000102996826,9.390000343322754
1753031691930,-0.8869500160217285,4.60605001449585,8.76300048828125
1753031692001,-0.4030500054359436,4.1419501304626465,8.353050231933594
1753031692064,-0.8959500193595886,,9.034950256347656
1753031692065,,3.6280500888824463,8.965950012207031
1753031692133,-1.1899501085281372,3.991950273513794,8.557050704956055
1753031692199,-1.0180500745773315,4.306950092315674,9.69795036315918
1753031692266,-2.809950113296509,4.6020002365112305,9.832050323486328
1753031692334,-0.690000057220459,3.9940502643585205,7.743000507354736
1753031692401,-1.054050087928772,4.3120503425598145,9.067049980163574
1753031692468,-1.5679501295089722,4.386000156402588,9.874950408935547
1753031692535,-0.9889500737190247,,
1753031692536,-1.0210500955581665,4.054049968719482,9.058950424194336
1753031692603,-0.5560500025749207,4.256999969482422,8.392050743103027
1753031692670,-0.6810000538825989,5.236050128936768,8.368050575256348
1753031692739,-0.8719500303268433,4.554000377655029,9.282000541687012
1753031692805,-0.34800001978874207,4.80495023727417,8.113950729370117
1753031692872,-0.7840500473976135,5.190000057220459,9.838950157165527
1753031692939,-0.031950000673532486,,
1753031692940,0.024000000208616257,4.192950248718262,8.712000846862793
1753031693009,-0.3430500030517578,4.824000358581543,7.200000286102295
1753031693074,-0.019950000569224358,5.533050060272217,7.552050590515137
1753031693146,-0.26205000281333923,5.311950206756592,8.194950103759766
1753031693213,-0.3739500045776367,5.7960004806518555,8.574000358581543
1753031693276,-0.6570000052452087,5.683050155639648,9.10004997253418
1753031693343,-0.7549500465393066,,7.591950416564941
1753031693344,,5.5159502029418945,
1753031693411,-0.7189500331878662,,7.939050197601318
1753031693412,,5.353050231933594,7.590000152587891
1753031693480,-0.5490000247955322,,7.027950286865234
1753031693481,,5.760000228881836,
1753031693545,-0.5800500512123108,,
1753031693546,-0.45795002579689026,6.2910003662109375,7.954050540924072
1753031693613,-0.7330500483512878,6.286050319671631,8.47800064086914
1753031693680,-0.8869500160217285,,
1753031693681,,,7.272000312805176
1753031693682,,5.679000377655029,
1753031693683,,5.425050258636475,
1753031693748,-0.6469500064849854,5.937000274658203,7.576050281524658
1753031693815,-0.4990500211715698,6.892050266265869,8.473050117492676
1753031693882,-0.3460500240325928,5.16195011138916,7.6810503005981445
1753031693949,-0.5419500470161438,5.64300012588501,7.198050498962402
1753031694016,-0.6930000185966492,,
1753031694017,-0.859950065612793,6.432000160217285,7.521000385284424
1753031694083,-0.5490000247955322,6.076050281524658,7.863000392913818
1753031694151,-0.6019500494003296,,7.843950271606445
1753031694152,,5.674050331115723,
1753031694218,-0.5110500454902649,,
1753031694219,,5.734050273895264,6.8959503173828125
1753031694287,-0.35100001096725464,,6.448950290679932
1753031694288,,5.719050407409668,
1753031694353,-0.12600000202655792,6.214950084686279,8.374950408935547
1753031694420,-0.5130000114440918,5.451000213623047,7.855950355529785
1753031694487,-1.1470500230789185,5.509050369262695,7.099950313568115
1753031694562,-0.6619500517845154,5.761950492858887,7.887000560760498
1753031694623,-1.0300500392913818,5.947050094604492,7.803000450134277
1753031694690,-0.6540000438690186,5.7460503578186035,9.238950729370117
1753031694764,-0.7740000486373901,5.92995023727417,8.104949951171875
1753031694891,-0.7999500632286072,5.551950454711914,7.53000020980835
1753031694958,-1.054050087928772,,
1753031694959,,6.247950077056885,7.888950347900391
1753031695026,-1.0420500040054321,,
1753031695027,-0.8940000534057617,6.243000507354736,8.200050354003906
1753031695092,-0.6570000052452087,5.779050350189209,6.9370503425598145
1753031695160,-0.4630500078201294,6.279000282287598,7.864950180053711
1753031695227,-0.8239500522613525,,
1753031695228,-0.8460000157356262,5.317050457000732,7.33905029296875
1753031695293,-1.6669501066207886,,9.31095027923584
1753031695294,,6.517950534820557,7.786050319671631
1753031695362,-1.1350500583648682,6.523050308227539,7.864950180053711
1753031695432,-1.2360000610351562,6.091950416564941,7.537050247192383
1753031695495,-1.2720000743865967,,
1753031695496,,6.2410502433776855,7.4320502281188965
1753031695563,-1.0990500450134277,6.946950435638428,6.729000091552734
1753031695630,-0.5400000214576721,6.322050094604492,7.528050422668457
1753031695698,-0.7020000219345093,,7.494000434875488
1753031695699,,5.6860504150390625,
1753031695765,-0.690000057220459,6.229050159454346,7.786050319671631
1753031695832,-0.7020000219345093,6.076050281524658,7.1860504150390625
1753031695900,-1.0950000286102295,6.1020002365112305,8.023050308227539
1753031695966,-1.1209501028060913,,
1753031695967,-1.0879501104354858,5.7960004806518555,7.083000183105469
1753031696034,-0.609000027179718,,
1753031696035,-0.6019500494003296,5.925000190734863,7.44195032119751
1753031696101,-0.6469500064849854,6.246000289916992,7.92495059967041
1753031696168,-0.8530500531196594,6.106950283050537,8.097000122070312
1753031696169,,6.037050247192383,
1753031696235,-0.4249500334262848,6.262050151824951,7.426950454711914
1753031696303,-0.24300001561641693,,7.159050464630127
1753031696312,,6.459000110626221,
1753031696370,-0.09195000678300858,,
1753031696371,,5.695050239562988,6.741000175476074
1753031696441,-0.8479500412940979,5.659050464630127,7.468050479888916
1753031696510,-0.820050060749054,,
1753031696511,,6.157050132751465,7.509000301361084
1753031696573,-0.3340500295162201,6.139950275421143,7.36305046081543
1753031696648,-0.4819500148296356,5.83905029296875,7.360050201416016
1753031696706,-0.820050060749054,,8.410950660705566
1753031696707,,6.3919501304626465,8.27400016784668
1753031696773,-0.3720000088214874,6.349050521850586,7.9110002517700195
1753031696841,-0.05400000140070915,,
1753031696842,,5.844000339508057,6.922050476074219
1753031696910,0.010050000622868538,,6.985050201416016
1753031696911,,6.1810503005981445,6.772050380706787
1753031696975,-0.6640500426292419,6.538050174713135,7.663950443267822
1753031697043,-0.364950031042099,5.566050052642822,7.606950283050537
1753031697110,-0.4339500069618225,6.1710004806518555,7.320000171661377
1753031697177,-0.2569500207901001,,
1753031697178,0.17505000531673431,,7.183050155639648
1753031697180,,5.614050388336182,
1753031697245,-1.015950083732605,5.788950443267822,7.936950206756592
1753031697312,-1.0249500274658203,6.39900016784668,8.676000595092773
1753031697379,-0.8749500513076782,,
1753031697380,-0.831000030040741,,7.035000324249268
1753031697381,,5.716950416564941,
1753031697446,-0.9199500679969788,5.632950305938721,8.655000686645508
1753031697514,-1.2499500513076782,6.985050201416016,9.046950340270996
1753031697580,-0.6520500183105469,6.550050258636475,8.418000221252441
1753031697647,-0.7330500483512878,5.712000370025635,6.382050514221191
1753031697715,-0.3820500075817108,6.247950077056885,7.011000156402588
1753031697782,-0.4819500148296356,6.034950256347656,6.535050392150879
1753031697850,-0.9610500335693359,5.650050163269043,8.42805004119873
1753031697917,-1.2720000743865967,,7.558950424194336
1753031697918,,6.106950283050537,
1753031697985,-0.9559500217437744,,8.662050247192383
1753031697987,,6.631050109863281,
1753031697988,,6.553950309753418,
1753031698052,-0.6160500049591064,6.009000301361084,7.7310004234313965
1753031698119,-1.3150500059127808,,8.112000465393066
1753031698128,,6.127950191497803,
1753031698189,-0.7810500264167786,6.069000244140625,7.456050395965576
1753031698255,-1.3890000581741333,6.211950302124023,9.10200023651123
1753031698326,-0.21405000984668732,6.106950283050537,7.152000427246094
1753031698456,-0.5080500245094299,,7.569000244140625
1753031698457,,6.163950443267822,
1753031698526,-0.8839500546455383,6.214950084686279,7.183050155639648
1753031698589,-1.2910500764846802,6.090000152587891,7.473000526428223
1753031698660,-0.8550000190734863,6.3409504890441895,7.786050319671631
1753031698723,-0.25200000405311584,6.364950180053711,7.540050506591797
1753031698791,-0.5520000457763672,,7.423050403594971
1753031698792,,5.9920501708984375,
1753031698865,-0.9460500478744507,5.688000202178955,7.228950500488281
1753031698925,-1.1230500936508179,6.6739501953125,7.6020002365112305
1753031698993,0.016950000077486038,,6.681000232696533
1753031698994,,6.103950500488281,
1753031699063,-0.5899500250816345,5.467950344085693,9.222000122070312
1753031699127,-1.210050106048584,,7.068000316619873
1753031699128,,5.362950325012207,6.322050094604492
1753031699194,-1.3200000524520874,6.810000419616699,7.82205057144165
1753031699263,-0.208950012922287,6.820050239562988,6.658950328826904
1753031699329,-0.6859500408172607,,
1753031699330,,6.124050140380859,7.935000419616699
1753031699396,-0.8719500303268433,,
1753031699397,-1.686000108718872,5.958000183105469,5.913000106811523
1753031699464,-0.5710500478744507,,8.008950233459473
1753031699465,,6.23805046081543,
1753031699532,-0.23100000619888306,5.755050182342529,7.312950134277344
1753031699598,-0.8340000510215759,,9.235950469970703
1753031699599,,6.484950542449951,
1753031699666,-0.5059500336647034,5.752950191497803,6.082950115203857
1753031699733,-0.7930500507354736,,
1753031699734,-0.07304999977350235,6.058950424194336,8.917950630187988
1753031699800,-0.9100500345230103,6.013950347900391,7.959000587463379
1753031699867,-1.144950032234192,,9.877950668334961
1753031699868,,6.064050197601318,
1753031699935,-1.0009500980377197,5.713950157165527,7.44705057144165
1753031700002,-0.3739500045776367,,7.8409504890441895
1753031700009,,5.944050312042236,
1753031700071,-0.45600003004074097,6.631050109863281,7.642950534820557
1753031700150,-0.47700002789497375,,
1753031700151,-0.6829500198364258,6.66195011138916,8.944050788879395
1753031700203,0.2950500249862671,,6.1210503578186035
1753031700204,,5.829000473022461,
1753031700272,-0.2070000171661377,5.970000267028809,7.357950210571289
1753031700353,-0.3910500109195709,6.817950248718262,7.273950576782227
1753031700405,-0.7600500583648682,6.363000392913818,8.1670503616333
1753031700475,-0.9610500335693359,5.578050136566162,7.755000591278076
1753031700541,-0.5989500284194946,6.12600040435791,7.755000591278076
1753031700607,-0.5299500226974487,,8.071050643920898
1753031700608,,6.472950458526611,
1753031700680,-1.0990500450134277,6.6499505043029785,8.095050811767578
1753031700681,,5.812950134277344,
1753031700742,-1.0470000505447388,6.142950057983398,7.413000583648682
1753031700809,-0.5850000381469727,5.9320502281188965,7.255050182342529
1753031700877,-0.21405000984668732,6.028050422668457,7.462950229644775
1753031700944,-1.2720000743865967,6.637950420379639,8.893950462341309
1753031701010,-0.2639999985694885,5.583000183105469,5.422050476074219
1753031701078,-0.29100000858306885,6.106950283050537,6.436950206756592
1753031701145,-0.21705001592636108,,
1753031701146,-0.5520000457763672,,6.877050399780273
1753031701147,,6.41295051574707,
1753031701213,-1.432050108909607,6.57105016708374,9.109950065612793
1753031701280,-1.0660500526428223,5.595000267028809,7.585050582885742
1753031701347,-1.2960000038146973,6.420000076293945,7.8409504890441895
1753031701414,-0.9300000667572021,6.2820000648498535,7.654950141906738
1753031701481,-1.152000069618225,,
1753031701482,-1.1779500246047974,5.994000434875488,7.44705057144165
1753031701551,-0.8080500364303589,5.982000350952148,7.131000518798828
1753031701616,-0.42195001244544983,6.550050258636475,7.651950359344482
1753031701683,-0.7720500230789185,,7.786050319671631
1753031701684,,6.526050090789795,
1753031701753,-0.031950000673532486,5.290950298309326,6.586950302124023
1753031701821,-0.9130500555038452,5.7430500984191895,6.978000164031982
1753031701891,-0.8290500640869141,6.289050102233887,7.927050590515137
1753031702019,-1.054050087928772,,
1753031702020,,6.358050346374512,8.499000549316406
1753031702096,-0.9390000700950623,6.090000152587891,7.552050590515137
1753031702154,-1.284000039100647,5.968050479888916,7.735950469970703
1753031702227,-1.2310500144958496,6.1810503005981445,9.106950759887695
1753031702289,-1.1620500087738037,5.881950378417969,8.513999938964844
1753031702358,-0.8269500136375427,5.284050464630127,6.963000297546387
1753031702423,-0.820050060749054,5.994000434875488,6.66195011138916
1753031702491,-0.42900002002716064,6.684000492095947,7.501950263977051
1753031702558,-0.7090500593185425,5.92995023727417,8.212050437927246
1753031702625,-1.0849500894546509,,7.683000564575195
1753031702626,,5.731050491333008,
1753031702692,-1.3290001153945923,6.5590500831604,8.806050300598145
1753031702760,-1.2220500707626343,6.547050476074219,7.990050315856934
1753031702826,-0.6420000195503235,,
1753031702827,-1.3120501041412354,5.466000080108643,6.9970502853393555
1753031702894,-0.8119500279426575,6.004050254821777,6.288000106811523
1753031702961,-0.7120500206947327,6.420000076293945,8.398950576782227
1753031703029,-1.1190000772476196,5.8720502853393555,8.83905029296875
1753031703096,-1.3750500679016113,5.989950180053711,7.552050590515137
1753031703163,-0.7740000486373901,7.183950424194336,7.402950286865234
1753031703230,-0.6379500031471252,,
1753031703231,,6.406050205230713,7.135050296783447
1753031703298,-0.35805001854896545,5.10705041885376,6.9150004386901855
1753031703365,-1.0440000295639038,5.695050239562988,6.793050289154053
1753031703432,-1.4269500970840454,,9.306000709533691
1753031703433,,6.415950298309326,
1753031703499,-1.3560000658035278,,
1753031703500,-0.4440000355243683,5.977950096130371,8.971050262451172
1753031703566,-1.6210501194000244,5.676000118255615,8.479949951171875
1753031703637,-1.4149500131607056,6.901050090789795,8.4660005569458
1753031703706,-0.15900000929832458,6.448950290679932,5.934000492095947
1753031703770,-0.3150000274181366,5.761950492858887,6.420000076293945
1753031703840,-0.4510500133037567,5.355000019073486,6.364950180053711
1753031703903,-0.62295001745224,5.596950054168701,9.070950508117676
1753031703975,-0.8910000324249268,6.081000328063965,8.257950782775879
1753031704037,-1.4560500383377075,6.447000503540039,8.952000617980957
1753031704111,-1.5349500179290771,,
1753031704112,-1.7340000867843628,6.217050075531006,7.413000583648682
1753031704172,-0.8269500136375427,6.384000301361084,6.889050483703613
1753031704173,,7.095000267028809,
1753031704248,0.031050002202391624,5.833950042724609,7.090050220489502
1753031704307,-1.2430500984191895,,7.102050304412842
1753031704308,,5.968050479888916,7.722000598907471
1753031704374,-0.3270000219345093,5.712000370025635,7.288950443267822
1753031704441,-0.859950065612793,5.986950397491455,8.004000663757324
1753031704508,-0.9250500202178955,,7.353000164031982
1753031704509,,5.442000389099121,
1753031704575,-2.215050220489502,6.190950393676758,9.379950523376465
1753031704642,-1.5780000686645508,6.223950386047363,8.533050537109375
1753031704709,-1.128000020980835,,7.942050457000732
1753031704710,,5.638050079345703,
1753031704778,-1.0110000371932983,6.420000076293945,6.867000102996826
1753031704844,-0.2740500271320343,6.505950450897217,7.336050510406494
1753031704911,0.14100000262260437,,6.598950386047363
1753031704912,,5.635050296783447,6.961050510406494
1753031704978,-0.3910500109195709,6.565950393676758,6.951000213623047
1753031705046,0.07395000010728836,,7.558950424194336
1753031705047,,6.109050273895264,7.3720502853393555
1753031705113,-0.19995000958442688,5.853000164031982,8.272050857543945
1753031705181,-1.1899501085281372,5.899050235748291,7.906050205230713
1753031705247,-1.1260499954223633,,
1753031705248,,5.9350504875183105,7.675950527191162
1753031705315,-0.817050039768219,5.752950191497803,8.16195011138916
1753031705382,-0.5370000004768372,,
1753031705383,-0.7170000076293945,6.637950420379639,7.659000396728516
1753031705453,0.06000000238418579,6.796050548553467,6.657000541687012
1753031705584,0.18495000898838043,5.713950157165527,6.520050525665283
1753031705653,0.12000000476837158,5.08305025100708,6.178050518035889
1753031705718,-1.7839500904083252,6.3510003089904785,9.564000129699707
1753031705786,-1.363050103187561,6.279000282287598,7.413000583648682
1753031705852,-0.06795000284910202,5.611950397491455,6.384000301361084
1753031705920,-0.492000013589859,,7.642950534820557
1753031705921,,6.337050437927246,
1753031705987,-0.0970500037074089,5.269050121307373,5.4150004386901855
1753031706056,-0.5520000457763672,5.454000473022461,7.285950183868408
1753031706122,-1.0249500274658203,6.166950225830078,8.083050727844238
1753031706189,-1.7770501375198364,5.674050331115723,9.643050193786621
1753031706256,-2.1739501953125,5.503950119018555,9.643050193786621
1753031706324,-1.5919500589370728,6.343950271606445,8.419950485229492
1753031706391,-1.1830500364303589,5.535000324249268,7.1260504722595215
1753031706458,-1.0090500116348267,6.492000102996826,7.474950313568115
1753031706525,-0.7410000562667847,6.736050128936768,7.948950290679932
1753031706593,-0.9270000457763672,6.934950351715088,8.431950569152832
1753031706660,-0.6160500049591064,6.355950355529785,7.291050434112549
1753031706727,0.48600003123283386,,
1753031706728,0.3469500243663788,4.51800012588501,5.776050090789795
1753031706795,-0.2569500207901001,5.052000045776367,6.772050380706787
1753031706862,-1.4149500131607056,5.8909502029418945,8.338950157165527
1753031706929,-1.0879501104354858,,6.456000328063965
1753031706930,,6.517950534820557,
1753031706996,-0.6970500349998474,,8.385000228881836
1753031706997,,5.499000072479248,
1753031707064,-1.7359501123428345,7.234050273895264,11.269950866699219
1753031707130,-0.7639500498771667,5.556000232696533,6.891000270843506
1753031707198,-1.6429500579833984,4.957950115203857,9.223950386047363
1753031707267,-0.5299500226974487,6.0420002937316895,6.432000160217285
1753031707333,-0.36000001430511475,4.909950256347656,5.64900016784668
1753031707400,-0.5869500041007996,,
1753031707401,-0.999000072479248,6.621000289916992,7.030050277709961
1753031707467,0.5890500545501709,4.719000339508057,4.551000118255615
1753031707534,-1.4419500827789307,7.8349504470825195,12.36405086517334
1753031707604,-0.16095000505447388,4.846050262451172,8.85105037689209
1753031707671,-0.06300000101327896,3.2659502029418945,9.250950813293457
1753031707736,-0.05595000088214874,4.189949989318848,7.549050331115723
1753031707803,-0.13305000960826874,4.252050399780273,4.981950283050537
1753031707870,0.028950002044439316,5.092050075531006,5.3460001945495605
1753031707938,-1.8370500802993774,,12.646050453186035
1753031707939,,8.820000648498535,14.503050804138184
1753031708005,1.7280000448226929,4.50600004196167,6.48900032043457
1753031708072,-2.431950092315674,,
1753031708073,-0.597000002861023,5.659050464630127,12.87405014038086
1753031708140,-1.0249500274658203,4.846050262451172,6.334050178527832
1753031708207,-0.7210500240325928,5.182950019836426,6.205050468444824
1753031708274,-0.37905001640319824,4.984950065612793,8.296050071716309
1753031708341,0.14100000262260437,4.965000152587891,7.777050495147705
1753031708409,-0.3240000009536743,4.456050395965576,6.7759504318237305
1753031708476,-0.7600500583648682,6.006000518798828,9.032999992370605
1753031708543,-0.831000030040741,,7.249950408935547
1753031708544,,5.478000164031982,
1753031708611,-0.597000002861023,5.154000282287598,8.19105052947998
1753031708677,-0.44895002245903015,,5.962950229644775
1753031708678,,4.78095006942749,6.169050216674805
1753031708746,-0.7260000109672546,5.418000221252441,9.547050476074219
1753031708813,-0.8479500412940979,,8.097000122070312
1753031708880,-1.9990501403808594,,9.222000122070312
1753031708881,,5.695050239562988,
1753031708948,-0.24000000953674316,5.781000137329102,8.5420503616333
1753031709015,-1.2190500497817993,,8.052000045776367
1753031709023,,5.821950435638428,
1753031709150,-1.1779500246047974,5.125950336456299,8.269950866699219
1753031709230,-0.9490500688552856,5.881950378417969,7.51800012588501
1753031709284,-0.8100000619888306,6.475050449371338,7.15500020980835
1753031709350,-1.0210500955581665,,
1753031709351,-0.820050060749054,5.607000350952148,9.259950637817383
1753031709425,-1.1329500675201416,5.616000175476074,6.622950077056885
1753031709486,-0.7290000319480896,4.855050086975098,10.078950881958008
1753031709552,-1.1620500087738037,4.79295015335083,8.06100082397461
1753031709630,-1.2600001096725464,4.9009504318237305,8.104949951171875
1753031709687,-1.1190000772476196,,
1753031709688,,5.45805025100708,8.491950035095215
1753031709754,-1.1040000915527344,3.89805006980896,7.135050296783447
1753031709822,-2.0779500007629395,,11.818050384521484
1753031709823,,5.238000392913818,
1753031709893,-1.9369500875473022,4.297950267791748,9.070950508117676
1753031709957,-2.155050039291382,,9.9660005569458
1753031709959,,4.896000385284424,
1753031710023,-1.446000099182129,,
1753031710024,,5.305050373077393,9.69105052947998
1753031710091,-0.3840000033378601,5.086950302124023,6.324000358581543
1753031710160,-0.3859500288963318,5.619000434875488,8.748000144958496
1753031710224,0.3739500045776367,4.71405029296875,7.03695011138916
1753031710292,-0.3720000088214874,,8.767050743103027
1753031710294,,4.470000267028809,
1753031710359,-0.8509500622749329,6.163950443267822,8.004000663757324
1753031710429,0.5220000147819519,5.2860002517700195,7.006050109863281
1753031710495,0.4140000343322754,,6.336000442504883
1753031710496,,5.281050205230713,
1753031710562,0.12195000797510147,5.551950454711914,9.210000038146973
1753031710628,0.45705002546310425,4.963050365447998,6.68595027923584
1753031710695,-1.741050124168396,5.427000045776367,10.285050392150879
1753031710763,-1.0780500173568726,5.893950462341309,8.230950355529785
1753031710829,-0.48000001907348633,,
1753031710830,-1.0399500131607056,4.963050365447998,7.180950164794922
1753031710899,-0.8820000290870667,5.81505012512207,8.626049995422363
1753031710965,-0.05400000140070915,4.633050441741943,7.012950420379639
1753031711032,-0.6829500198364258,4.717050075531006,8.796000480651855
1753031711033,,3.7789502143859863,
1753031711099,-2.155050039291382,6.577950477600098,7.458000183105469
1753031711166,-7.122000217437744,4.740000247955322,10.303950309753418
1753031711233,-2.325000047683716,5.1739501953125,7.875000476837158
1753031711300,-1.6639500856399536,5.248050212860107,8.071050643920898
1753031711368,-1.9009500741958618,4.855050086975098,6.829050540924072
1753031711436,-2.0779500007629395,,
1753031711437,-2.473050117492676,5.580000400543213,7.204950332641602
1753031711505,-2.7240002155303955,5.829000473022461,7.915950298309326
1753031711569,-2.698050022125244,5.461050033569336,6.772050380706787
1753031711636,-3.805950164794922,6.4110002517700195,8.016000747680664
1753031711704,-2.1190500259399414,5.511000156402588,8.913000106811523
1753031711771,-1.4029500484466553,4.965000152587891,7.558950424194336
1753031711838,0.18900001049041748,,
1753031711839,-0.25200000405311584,4.786050319671631,7.5420002937316895
1753031711906,-0.6690000295639038,5.236050128936768,6.628050327301025
1753031711973,-0.13500000536441803,6.376950263977051,6.574950218200684
1753031712040,-0.6970500349998474,6.958950519561768,8.104949951171875
1753031712108,-0.8719500303268433,5.3359503746032715,9.592950820922852
1753031712176,-0.7240500450134277,,
1753031712177,,5.989950180053711,7.590000152587891
1753031712243,-0.5560500025749207,5.077950477600098,7.384050369262695
1753031712310,-0.4729500114917755,,
1753031712311,-0.20205001533031464,5.323950290679932,6.5370001792907715
1753031712377,-0.32895001769065857,,
1753031712378,,6.262050151824951,7.746000289916992
1753031712445,-1.5570000410079956,,
1753031712446,,5.659050464630127,8.770050048828125
1753031712512,-0.9540000557899475,5.836050510406494,8.77500057220459
1753031712579,-0.820050060749054,5.977950096130371,7.5450005531311035
1753031712715,-0.16905000805854797,,
1753031712716,-0.013050000183284283,4.79295015335083,7.003950119018555
1753031712782,0.1579500138759613,4.9870500564575195,7.176000118255615
1753031712849,-0.9610500335693359,7.332000255584717,7.420050144195557
1753031712915,-0.9919500350952148,,8.78700065612793
1753031712916,,5.4559502601623535,
1753031712983,1.3120501041412354,4.408050060272217,7.333950519561768
1753031713050,-0.6330000162124634,,
1753031713052,,7.138050556182861,9.201000213623047
1753031713117,0.22500000894069672,3.5560500621795654,7.179000377655029
1753031713185,0.6799500584602356,5.3460001945495605,7.639950275421143
1753031713252,-0.4410000145435333,6.4110002517700195,9.058950424194336
1753031713319,0.09600000083446503,,
1753031713321,,4.551000118255615,7.0249505043029785
1753031713387,0.49995002150535583,6.013950347900391,8.89905071258545
1753031713453,0.21300001442432404,,
1753031713454,-1.152000069618225,5.748000144958496,7.473000526428223
1753031713520,1.672950029373169,6.021000385284424,6.57105016708374
1753031713589,-0.1969500035047531,4.357950210571289,8.836950302124023
1753031713655,-0.583050012588501,4.723950386047363,7.963050365447998
1753031713722,-1.7500500679016113,5.265000343322754,8.557050704956055
1753031713790,-2.8369500637054443,6.552000522613525,6.135000228881836
1753031713857,-1.3819500207901,5.523000240325928,7.624050140380859
1753031713924,-1.0210500955581665,5.968050479888916,8.683950424194336
1753031713991,-2.221950054168701,6.517950534820557,8.338950157165527
1753031714058,-2.4630000591278076,5.122950077056885,7.6210503578186035
1753031714125,-3.334050178527832,,8.844000816345215
1753031714126,,5.418000221252441,
1753031714193,-1.39395010471344,5.121000289916992,7.645050525665283
1753031714261,-0.38895002007484436,4.9270501136779785,7.405950546264648
1753031714327,-0.22800001502037048,,7.408050537109375
1753031714328,,6.814950466156006,
1753031714394,-0.23295001685619354,,
1753031714395,0.6630000472068787,4.654050350189209,7.513950347900391
1753031714463,-1.3650000095367432,,9.081000328063965
1753031714465,,5.614050388336182,
1753031714532,-0.4510500133037567,5.1660003662109375,9.238950729370117
1753031714598,0.453000009059906,4.579950332641602,7.6710004806518555
1753031714664,0.34995001554489136,,
1753031714665,1.1509500741958618,5.571000099182129,7.458000183105469
1753031714732,0.27300000190734863,5.860050201416016,6.9940505027771
1753031714799,-0.47700002789497375,6.736050128936768,8.503950119018555
1753031714866,-0.40995001792907715,,
1753031714867,,5.401050090789795,8.2339506149292
1753031714933,-0.8119500279426575,,
1753031714934,,5.47005033493042,7.171050548553467
1753031715000,-1.0399500131607056,,
1753031715001,-0.5560500025749207,6.778950214385986,8.028000831604004
1753031715068,-1.53000009059906,4.695000171661377,8.806050300598145
1753031715135,-2.2740001678466797,7.204950332641602,8.59005069732666
1753031715202,-2.860950231552124,,8.229000091552734
1753031715203,,6.2719502449035645,6.363000392913818
1753031715269,-1.755000114440918,6.2910003662109375,5.419950485229492
1753031715336,-2.5570502281188965,6.919950485229492,6.817050457000732
1753031715410,-2.8819501399993896,6.054000377655029,7.1569504737854
1753031715471,-2.1880500316619873,6.556950092315674,8.571000099182129
1753031715539,-1.4299501180648804,4.255050182342529,8.806050300598145
1753031715605,-1.0230000019073486,5.242950439453125,6.564000129699707
1753031715673,0.012000000104308128,5.791050434112549,8.140049934387207
1753031715740,-1.9390500783920288,6.7699503898620605,8.455950736999512
1753031715807,-1.5090000629425049,5.277000427246094,9.937950134277344
1753031715874,-1.533000111579895,6.41295051574707,8.350950241088867
1753031715942,-0.6970500349998474,,7.935000419616699
1753031715943,,5.181000232696533,
1753031716011,-1.336050033569336,,
1753031716012,0.20400001108646393,5.9509501457214355,8.925000190734863
1753031716076,-0.7189500331878662,,
1753031716077,0.0580500029027462,5.236050128936768,7.056000232696533
1753031716146,-0.6880500316619873,5.2099504470825195,8.454000473022461
1753031716278,-1.3290001153945923,5.6569504737854,10.23705005645752
1753031716347,-0.23595000803470612,,
1753031716348,-0.5230500102043152,5.041950225830078,7.825050354003906
1753031716414,0.012000000104308128,5.736000061035156,8.569050788879395
1753031716481,0.0,5.125950336456299,7.80495023727417
1753031716547,0.43800002336502075,4.783950328826904,7.606950283050537
1753031716616,-0.8149500489234924,5.293050289154053,8.671950340270996
1753031716682,-0.8340000510215759,6.130950450897217,7.231050491333008
1753031716749,-1.0350000858306885,6.451050281524658,9.130949974060059
1753031716816,-1.0800000429153442,,8.824950218200684
1753031716817,,5.688000202178955,7.936950206756592
1753031716885,-0.6400500535964966,,
1753031716886,-1.015950083732605,5.14995002746582,8.17905044555664
1753031716952,-1.1950500011444092,5.403000354766846,7.102050304412842
1753031717018,-0.583050012588501,,
1753031717019,-0.7050000429153442,5.479950428009033,6.889050483703613
1753031717086,-1.1830500364303589,6.511050224304199,10.090950012207031
1753031717152,-1.815000057220459,5.407950401306152,10.090950012207031
1753031717271,-0.5040000081062317,5.2099504470825195,7.588050365447998
1753031717292,-0.7429500222206116,5.145000457763672,7.7149505615234375
1753031717354,-0.05595000088214874,5.820000171661377,8.55405044555664
1753031717421,0.06195000186562538,,
1753031717422,-0.24300001561641693,5.868000507354736,8.671950340270996
1753031717489,-0.31905001401901245,5.320050239562988,8.385000228881836
1753031717556,-0.1279500126838684,6.3100504875183105,7.305000305175781
1753031717623,0.3520500063896179,,
1753031717624,,6.073050498962402,7.863000392913818
1753031717691,-0.23805001378059387,5.26200008392334,8.160000801086426
1753031717758,-0.5920500159263611,5.961000442504883,7.723950386047363
1753031717827,-0.4729500114917755,6.736050128936768,8.60205078125
1753031717890,0.010050000622868538,5.980050086975098,6.919950485229492
1753031717962,-0.34800001978874207,6.097050189971924,9.088050842285156
1753031718027,-0.24300001561641693,5.248050212860107,8.229000091552734
1753031718097,0.07200000435113907,5.3580002784729,6.348000526428223
1753031718164,-0.5130000114440918,6.684000492095947,9.07800006866455
1753031718230,-0.29100000858306885,,
1753031718231,0.6630000472068787,4.786050319671631,8.434950828552246
1753031718296,-0.6379500031471252,5.662050247192383,8.574000358581543
1753031718363,-0.25005000829696655,5.90595006942749,8.550000190734863
1753031718429,0.004950000438839197,4.824000358581543,6.23805046081543
1753031718496,-0.9460500478744507,,
1753031718497,-0.8940000534057617,7.014000415802002,9.201000213623047
1753031718570,-0.42705002427101135,5.725950241088867,8.431950569152832
1753031718637,0.010050000622868538,5.0560503005981445,6.942000389099121
1753031718699,-0.6160500049591064,6.009000301361084,7.888950347900391
1753031718766,-0.09195000678300858,,7.470000267028809
1753031718767,,5.4150004386901855,8.277000427246094
1753031718833,-0.46800002455711365,5.821950435638428,8.038050651550293
1753031718900,-0.24000000953674316,6.258000373840332,8.320050239562988
1753031718967,-0.29100000858306885,,
1753031718968,-0.9010500311851501,6.0520501136779785,8.305950164794922
1753031719035,0.22005000710487366,5.374950408935547,6.865050315856934
1753031719036,,5.479950428009033,
1753031719102,-0.6780000329017639,,8.370000839233398
1753031719103,,6.325050354003906,
1753031719170,-0.7620000243186951,5.64300012588501,8.368050575256348
1753031719239,-1.1040000915527344,6.60705041885376,9.5910005569458
1753031719304,0.7560000419616699,4.153950214385986,6.2719502449035645
1753031719377,-0.3960000276565552,5.527950286865234,8.73900032043457
1753031719439,-0.40605002641677856,6.4270501136779785,7.0489501953125
1753031719527,0.36195001006126404,5.320050239562988,7.252950191497803
1753031719588,-0.3430500030517578,7.180950164794922,8.076000213623047
1753031719642,0.05100000277161598,6.38700008392334,6.145050525665283
1753031719708,0.6540000438690186,,7.753050327301025
1753031719709,,6.829950332641602,
1753031719843,-0.05895000323653221,6.954000473022461,8.125950813293457
1753031719910,-0.07095000147819519,,8.140049934387207
1753031719911,,4.981950283050537,
1753031719978,-0.33105000853538513,5.200050354003906,7.336050510406494
1753031720044,-0.33900001645088196,6.32895040512085,8.788949966430664
1753031720112,0.5509500503540039,5.3580002784729,6.205050468444824
1753031720180,-0.7000500559806824,6.814950466156006,9.586050033569336
1753031720246,-0.6400500535964966,,
1753031720247,,5.512950420379639,9.057000160217285
1753031720314,-0.28095000982284546,5.302950382232666,7.600050449371338
1753031720380,-0.25005000829696655,5.287950038909912,7.82895040512085
1753031720448,0.32295000553131104,5.7019500732421875,7.470000267028809
1753031720515,-0.010950000956654549,,9.705000877380371
1753031720516,,6.274050235748291,
1753031720582,-0.4410000145435333,,
1753031720583,-0.35805001854896545,5.305050373077393,7.9710001945495605
1753031720650,-0.820050060749054,6.243000507354736,6.841050148010254
1753031720717,0.016950000077486038,6.456000328063965,8.332050323486328
1753031720784,-0.31200000643730164,,
1753031720785,-0.35100001096725464,5.6569504737854,8.688000679016113
1753031720854,-1.114050030708313,6.025050163269043,8.932950019836426
1753031720921,0.2850000262260437,5.443950176239014,6.961050510406494
1753031720988,0.14595000445842743,5.391000270843506,6.481950283050537
1753031721054,-0.5010000467300415,6.223950386047363,8.635950088500977
1753031721122,-0.40800002217292786,,
1753031721123,-0.27195000648498535,6.648000240325928,8.77695083618164
1753031721188,0.27105000615119934,5.554050445556641,6.975000381469727
1753031721254,-0.36195001006126404,,
1753031721255,-0.3240000009536743,6.175950527191162,8.284049987792969
1753031721324,-0.06795000284910202,,
1753031721325,0.10095000267028809,4.683000087738037,7.798050403594971
1753031721391,-1.0470000505447388,,9.148050308227539
1753031721392,,6.130950450897217,
1753031721459,-0.4650000333786011,5.845950126647949,8.265000343322754
1753031721526,-0.06105000153183937,,7.7719502449035645
1753031721527,,5.692950248718262,
1753031721594,-0.24495001137256622,,
1753031721595,,5.9659504890441895,7.678950309753418
1753031721661,-0.6640500426292419,,8.937000274658203
1753031721662,,5.821950435638428,8.575950622558594
1753031721726,-0.4459500312805176,5.3580002784729,7.303050518035889
1753031721793,-0.8670000433921814,6.298050403594971,8.667000770568848
1753031721794,,6.29295015335083,
1753031721862,-0.48705002665519714,5.488950252532959,8.824950218200684
1753031721928,-0.7549500465393066,5.305050373077393,8.23905086517334
1753031721996,-0.8269500136375427,,
1753031721997,-0.41505002975463867,5.784000396728516,8.884950637817383
1753031722063,0.2749500274658203,,6.3670501708984375
1753031722064,,4.993950366973877,
1753031722130,-0.5080500245094299,6.29295015335083,7.855950355529785
1753031722197,-0.35805001854896545,5.986950397491455,8.668950080871582
1753031722265,-0.5680500268936157,5.362950325012207,8.535000801086426
1753031722332,-0.48900002241134644,5.140050411224365,7.5450005531311035
1753031722401,-0.42900002002716064,5.443950176239014,7.956000328063965
1753031722466,-0.6619500517845154,5.6449503898620605,9.373050689697266
1753031722533,-0.8100000619888306,5.901000499725342,8.869950294494629
1753031722534,,5.683050155639648,
1753031722602,0.3660000264644623,5.761950492858887,7.006050109863281
1753031722668,0.5359500050544739,5.344050407409668,6.850950241088867
1753031722737,-0.6019500494003296,6.777000427246094,7.5610504150390625
1753031722804,0.05295000225305557,5.518050193786621,8.467950820922852
1753031722871,-0.6880500316619873,6.076050281524658,8.404050827026367
1753031722937,0.5910000205039978,4.918050289154053,7.174050331115723
1753031723006,0.24195000529289246,5.602050304412842,6.817050457000732
1753031723073,-0.3550500273704529,6.090000152587891,8.989950180053711
1753031723140,-0.3049500286579132,,
1753031723141,-0.527999997138977,5.737950325012207,8.932950019836426
1753031723208,-0.7069500088691711,5.554050445556641,8.431950569152832
1753031723275,-0.4819500148296356,6.034950256347656,8.160000801086426
1753031723407,-0.4510500133037567,,
1753031723408,-0.5659500360488892,5.250000476837158,7.549050331115723
1753031723477,-1.207050085067749,5.877000331878662,8.143050193786621
1753031723545,-0.16095000505447388,5.332050323486328,6.877050399780273
1753031723612,-0.07800000160932541,5.56095027923584,8.152050018310547
1753031723679,-0.9540000557899475,6.517950534820557,8.401050567626953
1753031723746,0.3660000264644623,5.722050189971924,8.338950157165527
1753031723813,-0.0990000069141388,5.350950241088867,7.213950157165527
