timestamp,AccX,AccY,AccZ
1753059227935,-0.7320000529289246,3.1500000953674316,8.950950622558594
1753059227939,,,9.478050231933594
1753059227940,0.687000036239624,3.058950185775757,
1753059227976,0.361050009727478,2.868000030517578,9.71505069732666
1753059228016,-0.556950032711029,2.728950023651123,10.141050338745117
1753059228066,0.7150500416755676,2.230950117111206,9.96405029296875
1753059228075,-0.11700000613927841,2.3580000400543213,9.238950729370117
1753059228115,-0.26805001497268677,2.707050085067749,9.31095027923584
1753059228163,1.078950047492981,2.200050115585327,9.490050315856934
1753059228174,1.0939500331878662,0.9160500168800354,10.054950714111328
1753059228194,1.443000078201294,0.46605002880096436,10.4839506149292
1753059228214,1.596000075340271,0.361050009727478,11.002950668334961
1753059228233,,,10.831050872802734
1753059228234,1.7830500602722168,-0.15000000596046448,
1753059228253,2.202000141143799,-0.019050000235438347,10.189050674438477
1753059228273,2.133000135421753,0.25995001196861267,10.282950401306152
1753059228293,1.8690000772476196,-0.09300000220537186,10.090950012207031
1753059228314,1.8790501356124878,0.2460000067949295,9.463950157165527
1753059228332,1.7710500955581665,,8.451000213623047
1753059228333,,0.5670000314712524,
1753059228352,1.6200001239776611,0.7699500322341919,7.54395055770874
1753059228372,1.4550000429153442,1.051050066947937,6.859050273895264
1753059228392,1.3549500703811646,0.7699500322341919,6.057000160217285
1753059228412,0.9790500402450562,0.31800001859664917,6.86400032043457
1753059228432,1.6249500513076782,-0.25995001196861267,9.196050643920898
1753059228452,2.3910000324249268,-1.2090001106262207,10.711050033569336
1753059228471,2.7619500160217285,,10.00005054473877
1753059228472,,-2.0850000381469727,
1753059228491,4.291950225830078,-2.4079501628875732,10.206000328063965
1753059228511,4.588950157165527,-1.4790000915527344,9.439949989318848
1753059228531,4.186950206756592,-1.3380000591278076,7.797000408172607
1753059228551,3.178950071334839,-1.162950038909912,7.34505033493042
1753059228571,2.1730501651763916,-1.8979500532150269,7.378050327301025
1753059228590,3.9810001850128174,-2.817000150680542,7.717950344085693
1753059228610,5.691000461578369,-2.797950029373169,8.580000877380371
1753059228630,6.379950523376465,-1.9170000553131104,8.707050323486328
1753059228650,5.983050346374512,-1.951050043106079,7.79295015335083
1753059228670,4.342950344085693,-2.190000057220459,7.264050483703613
1753059228689,4.414050102233887,,6.919050216674805
1753059228690,,-2.889000177383423,
1753059228709,,,8.452950477600098
1753059228710,5.9920501708984375,-3.4039502143859863,
1753059228730,7.206000328063965,-3.9619503021240234,9.619050025939941
1753059228749,7.52400016784668,-3.9880502223968506,8.623050689697266
1753059228769,6.745950222015381,-3.664950132369995,7.374000549316406
1753059228789,5.829000473022461,-4.074000358581543,8.140049934387207
1753059228808,,,9.358050346374512
1753059228809,4.4239501953125,-3.9790501594543457,
1753059228830,4.122000217437744,-4.07895040512085,8.781000137329102
1753059228848,5.323950290679932,-5.302950382232666,7.900050163269043
1753059228868,5.6260504722595215,-5.9730000495910645,8.329050064086914
1753059228888,5.233050346374512,-5.521050453186035,8.476950645446777
1753059228908,4.666050434112549,-4.611000061035156,7.98900032043457
1753059228928,3.7300500869750977,-3.3490500450134277,8.110950469970703
1753059228947,3.4260001182556152,-3.616950273513794,7.8070502281188965
1753059228967,,,6.31095027923584
1753059228968,3.2479500770568848,-4.122000217437744,
1753059228987,2.8530001640319824,,4.840950012207031
1753059228988,,-4.5169501304626465,
1753059229007,4.027050018310547,-5.461050033569336,7.048050403594971
1753059229027,3.733950138092041,-6.718050479888916,8.381999969482422
1753059229046,4.4239501953125,-6.595950126647949,8.166000366210938
1753059229066,,,7.158000469207764
1753059229067,4.291950225830078,-5.350950241088867,
1753059229086,4.1610002517700195,-4.34505033493042,6.799050331115723
1753059229106,5.008050441741943,-3.9430501461029053,6.844950199127197
1753059229126,5.182950019836426,-4.9770002365112305,6.69795036315918
1753059229145,4.363950252532959,,6.378000259399414
1753059229146,,-5.254950046539307,
1753059229165,,,5.995050430297852
1753059229166,3.967050075531006,-5.182950019836426,
1753059229185,4.9870500564575195,-5.101950168609619,6.339000225067139
1753059229205,6.502050399780273,-6.600000381469727,6.865950107574463
1753059229225,5.868000507354736,-6.423000335693359,7.800000190734863
1753059229245,4.960050106048584,-6.382050514221191,8.371950149536133
1753059229265,5.182950019836426,-6.9810004234313965,8.32395076751709
1753059229285,5.334000110626221,-7.576950550079346,6.6409502029418945
1753059229304,5.193000316619873,-7.186950206756592,4.5769500732421875
1753059229324,6.118950366973877,-5.638050079345703,4.543950080871582
1753059229344,5.716950416564941,-5.061000347137451,4.933950424194336
1753059229364,4.468950271606445,-5.788950443267822,5.91795015335083
1753059229384,4.122000217437744,-5.784000396728516,6.772950172424316
1753059229403,4.885950088500977,,6.544950485229492
1753059229404,,-5.65500020980835,
1753059229423,5.544000148773193,-5.767050266265869,5.130000114440918
1753059229444,5.820000171661377,-6.772950172424316,4.084050178527832
1753059229463,7.033950328826904,-7.07205057144165,4.027050018310547
1753059229483,7.591950416564941,-6.472950458526611,4.4670000076293945
1753059229503,6.745950222015381,,4.888050079345703
1753059229504,,-6.211950302124023,
1753059229522,6.093000411987305,-6.564000129699707,4.35705041885376
1753059229542,5.592000484466553,-5.997000217437744,3.90405011177063
1753059229562,6.189000129699707,-5.86305046081543,3.226950168609619
1753059229582,7.354050159454346,-5.614050388336182,3.1410000324249268
1753059229602,8.065950393676758,-5.209050178527832,2.3389501571655273
1753059229621,,,0.9979500770568848
1753059229622,5.749950408935547,-4.819050312042236,
1753059229641,3.5209500789642334,-3.058950185775757,4.093950271606445
1753059229661,2.3149502277374268,-3.945000171661377,8.901000022888184
1753059229681,1.1269500255584717,-5.110950469970703,10.213050842285156
1753059229701,-0.06405000388622284,-4.879050254821777,9.085050582885742
1753059229721,-1.5889500379562378,-4.941000461578369,7.957950592041016
1753059229740,,,5.070000171661377
1753059229741,-0.8880000710487366,-4.647000312805176,
1753059229761,-0.9600000381469727,-4.684950351715088,4.386000156402588
1753059229780,-1.1269500255584717,-4.675050258636475,3.2940001487731934
1753059229800,9.106950759887695,-9.60300064086914,5.293050289154053
1753059229820,11.221050262451172,-15.684000968933105,8.314949989318848
1753059229839,,,12.378000259399414
1753059229840,-0.40905001759529114,-14.439001083374023,
1753059229859,1.6920000314712524,,5.824950218200684
1753059229860,,-13.909950256347656,
1753059229879,0.49695003032684326,-10.009950637817383,4.560000419616699
1753059229899,,,7.849950313568115
1753059229900,0.4300500154495239,-6.748950481414795,
1753059229919,1.4740500450134277,-5.85105037689209,6.069000244140625
1753059229939,0.6360000371932983,-6.670050144195557,9.43005084991455
1753059229959,0.05505000427365303,-6.021000385284424,8.710050582885742
1753059229978,0.2959500253200531,-5.880000114440918,7.575000286102295
1753059229998,,,7.728000164031982
1753059229999,-0.013950000517070293,-6.177000522613525,
1753059230018,0.544950008392334,,7.6080002784729
1753059230019,,-6.49500036239624,
1753059230038,0.8970000147819519,-6.8520002365112305,7.522050380706787
1753059230058,1.194000005722046,-6.724950313568115,7.513050556182861
1753059230084,1.2229501008987427,-6.5620503425598145,7.390050411224365
1753059230098,,,7.302000522613525
1753059230099,1.1700000762939453,-6.484950542449951,
1753059230118,1.3690500259399414,-6.684000492095947,7.302000522613525
1753059230137,,,7.242000579833984
1753059230138,0.9690000414848328,-6.88800048828125,
1753059230157,0.9810000658035278,-6.754050254821777,7.07205057144165
1753059230179,0.9690000414848328,-6.69795036315918,7.299000263214111
1753059230208,1.0170000791549683,,7.279950141906738
1753059230209,,-6.684000492095947,
1753059230237,0.9640500545501709,-6.7099504470825195,7.302000522613525
1753059230266,,,6.763050556182861
1753059230267,0.984000027179718,-6.634050369262695,
1753059230302,1.0579500198364258,-6.636000156402588,6.445050239562988
1753059230331,1.527000069618225,-6.634050369262695,6.378000259399414
1753059230335,1.636950135231018,,6.2440505027771
1753059230338,,-7.129050254821777,
1753059230361,,-7.4599504470825195,
1753059230362,1.5529500246047974,,6.0520501136779785
1753059230390,1.374000072479248,-7.431000232696533,5.985000133514404
1753059230395,,,6.397050380706787
1753059230396,1.1700000762939453,-7.33305025100708,
1753059230419,1.0049999952316284,-7.096050262451172,6.415950298309326
1753059230454,0.8760000467300415,-7.153050422668457,6.421050071716309
1753059230455,0.9019500613212585,-7.410000324249268,6.4609503746032715
1753059230476,1.0120500326156616,-7.777950286865234,6.448950290679932
1753059230505,,,6.283950328826904
1753059230506,1.3639500141143799,-7.630050182342529,
1753059230537,1.852950096130371,-6.993000507354736,6.487950325012207
1753059230569,,,5.974950313568115
1753059230570,2.3170502185821533,-5.383950233459473,
1753059230575,1.390950083732605,-6.078000068664551,6.2410502433776855
1753059230604,0.7540500164031982,-7.0000505447387695,7.089000225067139
1753059230629,0.7150500416755676,-7.819050312042236,7.594050407409668
1753059230634,0.8929500579833984,-7.642050266265869,7.279950141906738
1753059230653,,,6.847050189971924
1753059230654,0.7609500288963318,-8.133000373840332,
1753059230683,0.8779500126838684,-8.295000076293945,6.481050491333008
1753059230715,1.6660500764846802,-7.999050617218018,6.775050163269043
1753059230750,1.5319501161575317,-8.157000541687012,6.688950538635254
1753059230785,,,6.8710503578186035
1753059230786,1.596000075340271,-8.23799991607666,6.919050216674805
1753059230820,2.0470499992370605,,5.571000099182129
1753059230821,,-7.990950584411621,
1753059230859,,,6.472950458526611
1753059230860,1.9579501152038574,-8.452950477600098,6.013950347900391
1753059230896,1.7160000801086426,-8.592000007629395,5.9160003662109375
1753059230931,1.6080000400543213,-7.872000217437744,5.398050308227539
1753059230967,2.1780002117156982,-6.840000152587891,6.217050075531006
1753059231001,2.25,-5.820000171661377,6.916050434112549
1753059231031,1.0549499988555908,-7.945950508117676,5.9350504875183105
1753059231061,,,5.7019500732421875
1753059231062,1.9170000553131104,-8.88705062866211,
1753059231094,,,5.63100004196167
1753059231095,2.4250500202178955,-8.37405014038086,6.1810503005981445
1753059231128,,,5.904000282287598
1753059231129,2.6520001888275146,-7.498050212860107,
1753059231130,,-7.303950309753418,5.63100004196167
1753059231153,,,5.053950309753418
1753059231154,1.683000087738037,-8.105999946594238,
1753059231178,1.812000036239624,-8.406000137329102,5.1160502433776855
1753059231210,,,4.9360504150390625
1753059231211,1.7899501323699951,-8.06100082397461,5.029950141906738
1753059231233,1.4860501289367676,-8.154000282287598,5.278950214385986
1753059231258,,,5.509050369262695
1753059231259,1.1869500875473022,-8.302950859069824,
1753059231291,0.9619500637054443,-8.355000495910645,5.725950241088867
1753059231317,0.3559500277042389,-8.781000137329102,5.2759504318237305
1753059231337,,,5.760000228881836
1753059231338,0.5500500202178955,-8.152050018310547,
1753059231370,0.05205000191926956,-7.740000247955322,5.9730000495910645
1753059231387,0.7080000042915344,-7.941000461578369,5.431950092315674
1753059231429,,,5.94195032119751
1753059231430,0.8850000500679016,-7.723050594329834,6.307950496673584
1753059231463,0.5770500302314758,-7.359000205993652,6.556950092315674
1753059231492,,,6.706050395965576
1753059231493,0.10005000233650208,-7.551000595092773,6.543000221252441
1753059231523,0.10005000233650208,-7.869000434875488,6.20805025100708
1753059231550,0.43995001912117004,-7.603050231933594,5.985000133514404
1753059231580,0.4900500178337097,-7.254000186920166,6.627000331878662
1753059231585,,,6.5809502601623535
1753059231586,0.4300500154495239,-7.1770501136779785,
1753059231608,,,5.896050453186035
1753059231609,0.6600000262260437,-7.206000328063965,
1753059231642,,,6.034950256347656
1753059231643,0.47805002331733704,-7.2870001792907715,
1753059231645,0.2939999997615814,-7.558050155639648,5.578050136566162
1753059231682,-0.1099500060081482,-8.046000480651855,6.435000419616699
1753059231687,0.1860000044107437,-7.836000442504883,6.010950088500977
1753059231709,0.1099500060081482,,6.20805025100708
1753059231710,,-8.12505054473877,
1753059231743,,,6.4519500732421875
1753059231744,-0.4420500099658966,-8.506050109863281,
1753059231778,,,5.566050052642822
1753059231779,-0.27000001072883606,-8.544000625610352,
1753059231783,-0.6439500451087952,-8.008049964904785,5.64300012588501
1753059231811,,,5.47005033493042
1753059231812,-0.9880500435829163,-8.28600025177002,
1753059231843,-1.0630500316619873,-8.406000137329102,4.8670501708984375
1753059231878,-0.5070000290870667,-8.595000267028809,5.511000156402588
1753059231907,-0.10500000417232513,-8.535000801086426,5.3959503173828125
1753059231935,0.22500000894069672,-8.194950103759766,4.900050163269043
1753059231942,1.7020500898361206,,5.310000419616699
1753059231945,,-6.928050518035889,
1753059231962,2.0470499992370605,-8.086950302124023,6.628950119018555
1753059231981,,,6.946950435638428
1753059231982,1.276050090789795,-8.85105037689209,
1753059232009,0.16500000655651093,-9.057000160217285,5.182950019836426
1753059232033,0.19095000624656677,-8.214000701904297,4.446000099182129
1753059232049,0.27195000648498535,-8.353050231933594,4.579950332641602
1753059232060,-0.2530499994754791,-8.920050621032715,4.656000137329102
1753059232080,,,4.720950126647949
1753059232081,0.05700000375509262,-9.222000122070312,
1753059232101,0.5190000534057617,-8.977950096130371,4.696950435638428
1753059232127,0.8370000123977661,-8.008049964904785,4.82895040512085
1753059232148,,,4.303950309753418
1753059232149,0.9400500655174255,-8.580000877380371,
1753059232175,0.3829500079154968,-9.109050750732422,4.402050018310547
1753059232180,-0.14595000445842743,-9.160050392150879,4.453050136566162
1753059232207,,,4.495950222015381
1753059232208,-0.2530499994754791,-8.941950798034668,
1753059232232,0.09300000220537186,-8.631000518798828,4.6180500984191895
1753059232258,0.544950008392334,-8.986950874328613,4.668000221252441
1753059232260,1.1299500465393066,-9.258000373840332,3.687000274658203
1753059232285,1.27305006980896,,4.197000026702881
1753059232286,,-9.160050392150879,
1753059232308,,,4.843050003051758
1753059232309,1.7310000658035278,-8.632950782775879,
1753059232318,,,4.572000026702881
1753059232319,1.0579500198364258,-8.659049987792969,
1753059232339,0.853950023651123,-8.449049949645996,4.9360504150390625
1753059232369,0.49995002150535583,-8.30505084991455,5.712000370025635
1753059232378,0.45000001788139343,-8.142000198364258,5.734050273895264
1753059232401,0.6990000605583191,,6.100050449371338
1753059232402,,-7.72605037689209,
1753059232419,0.895050048828125,-8.365050315856934,5.365050315856934
1753059232438,0.9450000524520874,,5.475000381469727
1753059232439,,-8.418000221252441,
1753059232468,0.921000063419342,-8.109000205993652,5.45805025100708
1753059232492,0.9139500260353088,-8.230950355529785,4.9960503578186035
1753059232497,1.1770501136779785,-8.3860502243042,5.080050468444824
1753059232518,1.0429500341415405,-8.80305004119873,4.888050079345703
1753059232549,-0.10005000233650208,-7.386000156402588,4.417050361633301
1753059232570,1.1820000410079956,-9.169050216674805,5.419950485229492
1753059232576,1.3090500831604004,,4.948050022125244
1753059232577,,-9.238950729370117,
1753059232602,0.7900500297546387,,4.551000118255615
1753059232603,,-8.77695083618164,
1753059232628,0.5290500521659851,-8.458050727844238,4.446000099182129
1753059232651,,,4.60605001449585
1753059232652,0.5650500059127808,-8.530050277709961,
1753059232682,,,4.912050247192383
1753059232683,0.41805002093315125,-8.5489501953125,4.990950107574463
1753059232709,1.333050012588501,-9.141000747680664,4.831050395965576
1753059232715,0.6510000228881836,-8.772000312805176,4.291950225830078
1753059232736,2.0970001220703125,-9.43005084991455,4.264050006866455
1753059232760,,,4.069950103759766
1753059232761,0.13395000994205475,-8.535000801086426,
1753059232785,,,4.378050327301025
1753059232786,1.374000072479248,-9.246000289916992,
1753059232795,1.3039500713348389,-8.986950874328613,4.057950019836426
1753059232822,1.4740500450134277,-9.16200065612793,4.015050411224365
1753059232847,0.9019500613212585,-9.12600040435791,3.8809502124786377
1753059232866,0.909000039100647,-9.270000457763672,3.9120001792907715
1753059232874,0.9400500655174255,-9.363000869750977,3.9400501251220703
1753059232893,,,4.219950199127197
1753059232894,0.7200000286102295,-8.961000442504883,
1753059232913,0.21705001592636108,-9.057000160217285,4.503000259399414
1753059232933,0.6790500283241272,-8.941950798034668,4.249050140380859
1753059232953,0.9190500378608704,-9.141000747680664,3.8209502696990967
1753059232973,0.742050051689148,-9.342000007629395,3.547950267791748
1753059232993,,,3.450000047683716
1753059232994,0.7270500063896179,-9.241050720214844,
1753059233017,,,3.198000192642212
1753059233018,0.856950044631958,-9.28695011138916,
1753059233043,0.8089500665664673,-9.18600082397461,2.974950075149536
1753059233072,,,2.7940502166748047
1753059233073,0.9160500168800354,-9.378000259399414,2.470050096511841
1753059233100,0.909000039100647,-9.588000297546387,2.2290000915527344
1753059233112,1.0000500679016113,-10.105050086975098,3.268050193786621
1753059233131,,,2.0940001010894775
1753059233132,0.556950032711029,-10.00200080871582,
1753059233177,0.33705002069473267,-9.38700008392334,1.4170501232147217
1753059233199,,,1.3980001211166382
1753059233200,0.739050030708313,-9.270000457763672,
1753059233230,1.0939500331878662,-10.036050796508789,0.7060500383377075
1753059233233,1.0120500326156616,-10.291950225830078,0.1290000081062317
1753059233258,,,0.2560500204563141
1753059233259,0.4230000078678131,-9.528000831604004,
1753059233289,,,0.22500000894069672
1753059233290,0.38700002431869507,-9.583050727844238,0.4759500324726105
1753059233315,0.5530500411987305,-11.179950714111328,-0.1099500060081482
1753059233330,0.28395000100135803,-11.185050964355469,0.42600002884864807
1753059233349,,,0.5190000534057617
1753059233350,0.25995001196861267,-10.789950370788574,
1753059233399,,,0.4759500324726105
1753059233400,-0.5879999995231628,-9.921000480651855,1.2559500932693481
1753059233409,-0.5670000314712524,-8.394000053405762,0.9240000247955322
1753059233434,1.3309500217437744,-10.579050064086914,1.0069500207901
1753059233469,,,0.4830000102519989
1753059233470,1.2679500579833984,-9.451950073242188,2.0680501461029053
1753059233508,1.8409501314163208,-8.87700080871582,-0.47805002331733704
1753059233509,2.379000186920166,-10.089000701904297,-0.7270500063896179
1753059233543,,,-0.7510500550270081
1753059233544,1.8310500383377075,-9.67905044555664,
1753059233549,1.867050051689148,-9.022950172424316,-1.3519500494003296
1753059233583,1.4770500659942627,-8.230950355529785,-1.6780500411987305
1753059233619,1.1460000276565552,,-2.427000045776367
1753059233620,,-8.200050354003906,
1753059233627,,,-5.2069501876831055
1753059233628,3.945000171661377,-13.21095085144043,
1753059233655,2.9659502506256104,-12.283950805664062,-4.052999973297119
1753059233692,2.1850500106811523,,-2.608950138092041
1753059233693,1.2919501066207886,-10.71405029296875,
1753059233723,,,-1.963050127029419
1753059233724,1.4959501028060913,-10.4839506149292,
1753059233760,3.0019500255584717,-10.969950675964355,-2.8750500679016113
1753059233766,5.002950191497803,-10.510050773620605,-3.217050075531006
1753059233790,5.089950084686279,-10.606050491333008,-2.4679501056671143
1753059233827,4.528950214385986,-10.029000282287598,-2.6760001182556152
1753059233862,2.9110500812530518,,-2.1850500106811523
1753059233863,,-9.652950286865234,
1753059233865,2.041949987411499,-8.398050308227539,-1.7260501384735107
1753059233899,2.3959500789642334,,-2.1090002059936523
1753059233900,,-7.231950283050537,
1753059233905,3.8830502033233643,-5.868000507354736,-2.287950038909912
1753059233936,,,-2.650050163269043
1753059233937,3.3420002460479736,-6.246000289916992,
1753059233969,,,-1.8049501180648804
1753059233970,2.9800500869750977,-6.198000431060791,-3.009000062942505
1753059234007,4.01894998550415,,-3.604950189590454
1753059234008,4.050000190734863,-8.29800033569336,
1753059234040,,,-3.639000177383423
1753059234041,4.2900004386901855,-8.530050277709961,
1753059234044,4.05495023727417,-8.482049942016602,-3.604950189590454
1753059234078,4.06695032119751,-8.353050231933594,-3.604950189590454
1753059234106,,,-3.5089502334594727
1753059234107,3.825000286102295,-7.98900032043457,-3.220050096511841
1753059234134,4.110000133514404,-8.008049964904785,-3.307950258255005
1753059234170,,,-3.409050226211548
1753059234171,3.895050287246704,-7.861950397491455,-3.5929501056671143
1753059234204,2.9010000228881836,-7.563000202178955,-3.7420501708984375
1753059234232,4.085999965667725,,-3.1740002632141113
1753059234233,,-7.636950492858887,
1753059234242,4.417050361633301,-8.046000480651855,-4.876049995422363
1753059234270,4.503000259399414,-8.698050498962402,-4.939050197601318
1753059234298,4.35705041885376,-8.844000816345215,-4.600950241088867
1753059234302,4.62000036239624,-9.258000373840332,-5.707050323486328
1753059234326,5.133000373840332,,-6.655050277709961
1753059234327,,-9.211950302124023,
1753059234361,5.812950134277344,-9.672000885009766,-7.14900016784668
1753059234398,3.864000082015991,-7.582050323486328,-4.945950031280518
1753059234400,,,-3.5929501056671143
1753059234401,2.9830501079559326,-6.9210004806518555,
1753059234428,3.157050132751465,-8.248050689697266,-5.9350504875183105
1753059234458,,,-6.367950439453125
1753059234459,3.4590001106262207,-8.209050178527832,
1753059234462,2.937000036239624,-8.050950050354004,-6.706050395965576
1753059234493,,,-6.823050498962402
1753059234494,2.820000171661377,-7.879050254821777,
1753059234528,2.8150501251220703,,-6.211950302124023
1753059234529,2.473050117492676,-7.278000354766846,
1753059234540,1.9200000762939453,-6.808950424194336,-6.337050437927246
1753059234559,1.4029500484466553,-6.624000549316406,-6.556950092315674
1753059234582,0.9600000381469727,-6.303000450134277,-5.980050086975098
1753059234622,0.4620000123977661,-6.054000377655029,-6.22005033493042
1753059234648,0.4039500057697296,-7.231950283050537,-7.165050506591797
1753059234666,0.21000000834465027,-7.218000411987305,-8.169000625610352
1753059234678,,,-7.548000335693359
1753059234679,0.5550000071525574,-7.156050205230713,
1753059234702,,,-7.173000335693359
1753059234703,1.0030500888824463,-7.350000381469727,
1753059234737,1.1010000705718994,-7.273050308227539,-7.375950336456299
1753059234740,1.4100000858306885,-7.849950313568115,-8.146950721740723
1753059234762,0.895050048828125,-8.068050384521484,-8.568000793457031
1753059234799,0.3949500322341919,-7.471950531005859,-8.81505012512207
1753059234837,-0.6100500226020813,-6.327000141143799,-9.483000755310059
1753059234878,-1.0740000009536743,-4.663050174713135,-8.27595043182373
1753059234912,1.4860501289367676,-5.0560503005981445,-4.809000015258789
1753059234919,1.963050127029419,-5.295000076293945,-3.3730502128601074
1753059234936,,,-2.788950204849243
1753059234937,1.8139500617980957,-5.224050045013428,
1753059234969,1.798050045967102,-4.990950107574463,-2.599950075149536
1753059235006,,,-2.7529501914978027
1753059235007,1.908000111579895,-4.852950096130371,-2.728950023651123
1753059235040,,,-3.7129502296447754
1753059235041,1.3260000944137573,-5.20395040512085,-6.696000099182129
1753059235073,5.752950191497803,-11.0149507522583,-10.479000091552734
1753059235076,5.3580002784729,-10.062000274658203,-9.370050430297852
1753059235107,4.88100004196167,-9.823050498962402,-8.104050636291504
1753059235115,4.480950355529785,-9.454050064086914,-7.086000442504883
1753059235142,3.7219502925872803,,-5.760000228881836
1753059235143,,-8.664000511169434,
1753059235175,3.865950107574463,-7.79295015335083,-3.484950065612793
1753059235203,3.828000068664551,-7.503000259399414,-3.1120500564575195
1753059235227,4.105950355529785,-7.219950199127197,-3.0739500522613525
1753059235262,4.062000274658203,,-2.628000020980835
1753059235263,5.085000038146973,-6.463950157165527,
1753059235273,,,-2.997000217437744
1753059235274,3.7540502548217773,-6.667050361633301,
1753059235295,0.8760000467300415,-2.1469500064849854,-1.3399500846862793
1753059235323,2.4150002002716064,-7.359000205993652,-5.298000335693359
1753059235351,3.9160501956939697,-11.773950576782227,-4.062000274658203
1753059235352,,,-4.993950366973877
1753059235353,4.611000061035156,-9.804000854492188,
1753059235379,5.239950180053711,-12.03795051574707,-4.563000202178955
1753059235401,6.210000514984131,-14.206951141357422,-5.2069501876831055
1753059235431,5.422050476074219,-11.793000221252441,-5.257050037384033
1753059235433,6.246000289916992,-11.416950225830078,-4.801950454711914
1753059235454,5.295000076293945,-10.873950958251953,-4.903050422668457
1753059235482,4.279950141906738,-9.19800090789795,-4.144050121307373
1753059235491,,,-3.699000120162964
1753059235492,4.647000312805176,-9.576000213623047,
1753059235512,5.013000011444092,-8.896050453186035,-3.745950222015381
1753059235535,4.654050350189209,-7.510050296783447,-3.3990001678466797
1753059235563,4.6870503425598145,-7.824000358581543,-3.7420501708984375
1753059235591,,,-3.6700501441955566
1753059235592,4.477050304412842,-7.156050205230713,-3.913950204849243
1753059235610,4.513050079345703,-8.203949928283691,-3.835050106048584
1753059235654,4.627050399780273,-9.532950401306152,-4.483950138092041
1753059235682,4.306950092315674,-10.378050804138184,-5.221050262451172
1753059235704,4.920000076293945,-10.543950080871582,-4.795050144195557
1753059235712,,,-5.479950428009033
1753059235713,5.298000335693359,-10.339950561523438,
1753059235737,,,-4.864950180053711
1753059235738,4.884000301361084,-9.370050430297852,
1753059235775,,,-4.944000244140625
1753059235776,4.339950084686279,-9.616950035095215,-4.206000328063965
1753059235790,2.968050241470337,-8.905950546264648,-4.1579999923706055
1753059235809,2.1690001487731934,-8.105999946594238,-2.67900013923645
1753059235846,1.7640000581741333,-8.053950309753418,-1.7899501323699951
1753059235848,1.2250500917434692,,-1.6249500513076782
1753059235849,,-6.973950386047363,
1753059235870,2.39805006980896,-6.777000427246094,-3.8179502487182617
1753059235889,4.62000036239624,-7.927050590515137,-4.623000144958496
1753059235911,8.233050346374512,-9.283950805664062,-4.492950439453125
1753059235936,5.154000282287598,-10.692000389099121,-3.828000068664551
1753059235955,5.764950275421143,-10.21095085144043,-5.44605016708374
1753059235983,4.339950084686279,-8.59695053100586,-4.471950054168701
1753059236011,2.7619500160217285,,-3.892050266265869
1753059236012,,-7.012050151824951,
1753059236040,,,-3.0259501934051514
1753059236041,1.264050006866455,-6.889950275421143,
1753059236070,,,-3.7420501708984375
1753059236071,2.4439501762390137,-8.662050247192383,-3.559950113296509
1753059236100,5.650050163269043,,-1.1700000762939453
1753059236101,,-10.407000541687012,
1753059236106,5.118000030517578,-8.467950820922852,-0.8350500464439392
1753059236131,3.9379501342773438,-7.102950572967529,-0.361050009727478
1753059236160,4.7659502029418945,-6.775050163269043,-2.5009500980377197
1753059236165,5.53695011138916,-6.904050350189209,-0.9949500560760498
1753059236191,5.476950168609619,-6.730050086975098,-1.1700000762939453
1753059236221,5.616000175476074,-6.651000499725342,-2.0350501537323
1753059236225,5.371950149536133,-7.114950180053711,-1.6399500370025635
1753059236250,5.181000232696533,-6.349050521850586,-2.370000123977661
1753059236274,4.981950283050537,-6.5400004386901855,-2.6929500102996826
1753059236309,,,-2.9659502506256104
1753059236310,5.419950485229492,-6.727050304412842,-3.3630001544952393
1753059236324,4.824000358581543,-7.462050437927246,-3.201000213623047
1753059236370,4.9770002365112305,-8.616000175476074,-3.718050241470337
1753059236400,4.939050197601318,-8.686050415039062,-3.3109500408172607
1753059236404,6.045000076293945,-8.59695053100586,-3.61995005607605
1753059236424,,,-3.217050075531006
1753059236425,6.663000106811523,-8.367000579833984,
1753059236453,6.841950416564941,-7.735050201416016,-2.382000207901001
1753059236465,7.234950542449951,-7.402050495147705,-2.6860501766204834
1753059236485,7.216050148010254,-7.077000141143799,-2.67900013923645
1753059236512,6.361050128936768,-6.172050476074219,-2.2759501934051514
1753059236522,,,-2.6710500717163086
1753059236523,6.136050224304199,-6.247950077056885,
1753059236551,6.166950225830078,,-4.314000129699707
1753059236552,,-7.551000595092773,
1753059236581,6.022950172424316,,-7.084050178527832
1753059236582,,-8.710050582885742,-9.753000259399414
1753059236612,,,-11.671051025390625
1753059236613,2.785950183868408,-7.567950248718262,
1753059236642,1.76895010471344,-8.02500057220459,-11.953950881958008
1753059236667,0.7579500079154968,-5.719050407409668,-8.58495044708252
1753059236693,-0.21000000834465027,-5.353050231933594,-6.469050407409668
1753059236722,,,-6.189000129699707
1753059236723,0.5260500311851501,-5.913000106811523,-7.195950508117676
1753059236752,,,-8.185050010681152
1753059236753,0.016050001606345177,-6.967050552368164,
1753059236761,0.20295001566410065,-7.978950500488281,-9.502050399780273
1753059236807,0.7270500063896179,-8.911050796508789,-10.207950592041016
1753059236819,,,-8.77695083618164
1753059236820,0.22200001776218414,-10.114950180053711,
1753059236839,,,-2.442000150680542
1753059236840,-1.7830500602722168,-13.491000175476074,
1753059236861,-4.134000301361084,-17.472000122070312,0.10500000417232513
1753059236886,-4.052999973297119,-18.4950008392334,1.0669500827789307
1753059236915,,,0.09000000357627869
1753059236916,-1.9579501152038574,-14.755050659179688,
1753059236919,,,-1.6540501117706299
1753059236920,-0.021000001579523087,-11.415000915527344,
1753059236948,3.0550501346588135,-10.183950424194336,-3.8329501152038574
1753059236974,5.853000164031982,-11.281050682067871,-5.683050155639648
1753059237009,7.591950416564941,-11.829000473022461,-4.717950344085693
1753059237018,5.1160502433776855,-11.283000946044922,-5.623050212860107
1753059237041,-0.8970000147819519,-9.823050498962402,-4.69005012512207
1753059237073,-3.748950242996216,-7.303950309753418,-3.0210001468658447
1753059237106,-2.180999994277954,-5.596950054168701,-1.2229501008987427
1753059237117,-0.6480000019073486,,-4.204050064086914
1753059237118,,-5.086950302124023,
1753059237137,,,-5.236050128936768
1753059237138,0.004050000105053186,-5.533050060272217,
1753059237158,1.1220000982284546,,-4.88100004196167
1753059237159,,-5.640000343322754,
1753059237191,,,-4.88100004196167
1753059237192,3.3349502086639404,-8.080050468444824,
1753059237196,,,-8.065950393676758
1753059237197,3.793950080871582,-9.265050888061523,
1753059237216,,,-11.773950576782227
1753059237218,8.146950721740723,-11.404950141906738,
1753059237252,,,-12.475950241088867
1753059237253,12.222000122070312,-12.652950286865234,
1753059237272,10.843050956726074,-11.55405044555664,-6.670050144195557
1753059237278,4.90500020980835,-11.227950096130371,-8.116050720214844
1753059237306,,,-4.363950252532959
1753059237307,3.0019500255584717,-11.994000434875488,
1753059237336,-1.1890500783920288,-9.199950218200684,1.9290001392364502
1753059237365,1.612950086593628,-8.197050094604492,3.4620001316070557
1753059237395,,,1.446000099182129
1753059237396,2.580000162124634,-8.736000061035156,-1.4959501028060913
1753059237427,,,-3.888000249862671
1753059237428,6.796950340270996,-10.860000610351562,
1753059237435,12.172050476074219,-12.39900016784668,-3.114000082015991
1753059237460,6.571950435638428,-10.948050498962402,-6.8110504150390625
1753059237488,3.9979500770568848,-8.032050132751465,-1.4580000638961792
1753059237494,-0.8689500689506531,-5.829000473022461,-0.742050051689148
1753059237523,-1.0290000438690186,-4.564949989318848,0.7849500179290771
1753059237553,0.51705002784729,-4.8070502281188965,1.4860501289367676
1753059237584,3.8610002994537354,-6.253050327301025,-1.141950011253357
1753059237608,3.0109500885009766,-4.8259501457214355,-1.3810501098632812
1753059237628,-0.9280500411987305,-3.2029502391815186,-0.8659500479698181
1753059237632,-1.6230000257492065,-2.4660000801086426,-1.9480501413345337
1753059237652,0.04305000230669975,-2.7499501705169678,-3.61995005607605
1753059237697,0.2650500237941742,-3.235950231552124,-5.023050308227539
1753059237727,,,-1.6060501337051392
1753059237728,3.828000068664551,-8.571000099182129,
1753059237757,,,0.16695000231266022
1753059237758,11.226000785827637,-11.326050758361816,-15.199951171875
1753059237772,22.483051300048828,-17.290050506591797,-12.760951042175293
1753059237793,10.267950057983398,-12.804000854492188,-6.141000270843506
1753059237820,4.8070502281188965,-9.684000015258789,-2.608950138092041
1753059237831,2.1229500770568848,-9.643050193786621,4.371000289916992
1753059237852,2.6640000343322754,,6.88800048828125
1753059237853,,-12.11400032043457,
1753059237883,6.2440505027771,-13.156050682067871,0.032999999821186066
1753059237914,7.180050373077393,-11.31705093383789,3.226950168609619
1753059237944,,,-4.728000164031982
1753059237945,9.157050132751465,-11.190000534057617,
1753059237978,4.266000270843506,-9.390000343322754,-5.640000343322754
1753059238005,5.865000247955322,-6.763050556182861,-3.8520002365112305
1753059238026,,,-4.062000274658203
1753059238027,5.239950180053711,-6.177000522613525,
1753059238030,3.957000255584717,,-5.281050205230713
1753059238031,,-5.956050395965576,
1753059238059,2.892000198364258,-6.270000457763672,-5.2860002517700195
1753059238091,2.1760501861572266,,-4.323000431060791
1753059238092,2.1450002193450928,-6.198000431060791,
1753059238123,3.595950126647949,-5.911050319671631,-2.041949987411499
1753059238149,4.990950107574463,-7.735050201416016,-2.809950113296509
1753059238174,6.010950088500977,-9.1360502243042,-4.198950290679932
1753059238199,5.716950416564941,-8.326950073242188,-2.829000234603882
1753059238226,6.454050540924072,-8.200050354003906,-1.5390000343322754
1753059238256,6.1210503578186035,-7.572000503540039,-1.2850500345230103
1753059238267,6.552000522613525,-6.829950332641602,-1.4100000858306885
1753059238287,,,-0.9949500560760498
1753059238288,6.169050216674805,-5.81505012512207,
1753059238312,7.017000198364258,,-0.5070000290870667
1753059238313,,-3.9019501209259033,
1753059238345,6.150000095367432,-4.648950099945068,-2.041949987411499
1753059238347,4.552950382232666,-6.634050369262695,-4.291950225830078
1753059238379,,,-3.0709500312805176
1753059238380,4.398000240325928,-6.3319501876831055,
1753059238404,5.884050369262695,-6.7920002937316895,-2.2960500717163086
1753059238407,7.218000411987305,-7.266000270843506,-2.1690001487731934
1753059238435,,,-2.6830501556396484
1753059238436,8.56095027923584,-7.137000560760498,
1753059238463,8.331000328063965,-6.082950115203857,-1.0410000085830688
1753059238466,5.899050235748291,,-2.956050157546997
1753059238468,,-7.740000247955322,
1753059238505,6.50700044631958,,-2.329050064086914
1753059238506,7.0909504890441895,-8.068050384521484,
1753059238541,6.796950340270996,-6.892050266265869,-2.7580502033233643
1753059238586,6.505050182342529,,-3.0930001735687256
1753059238587,6.463950157165527,-6.961950302124023,
1753059238629,6.2220001220703125,-5.263950347900391,-2.6020500659942627
1753059238668,6.229050159454346,-5.809950351715088,-2.956050157546997
1753059238713,7.1509504318237305,-6.805950164794922,-2.839050054550171
1753059238750,7.402050495147705,-8.515950202941895,-2.458050012588501
1753059238791,,,-0.556950032711029
1753059238792,7.9200005531311035,-7.527000427246094,-1.2799500226974487
1753059238838,8.022000312805176,-6.8110504150390625,-1.7860500812530518
1753059238891,7.809000492095947,0.09000000357627869,2.053950071334839
1753059238914,7.1610002517700195,-9.463950157165527,-6.11400032043457
1753059238933,5.740950107574463,-14.947051048278809,-8.710050582885742
1753059238950,4.4070000648498535,-8.896050453186035,-3.0229501724243164
1753059238961,6.397050380706787,-6.32295036315918,0.17205001413822174
1753059238981,,,2.6140501499176025
1753059238982,7.929000377655029,-4.394999980926514,
1753059239001,8.731050491333008,-4.375950336456299,2.070000171661377
1753059239023,9.495000839233398,-7.869000434875488,-0.8089500665664673
1753059239043,8.266950607299805,,-2.48895001411438
1753059239044,,-8.236050605773926,
1753059239076,7.927050590515137,-6.816000461578369,-2.748000144958496
1753059239081,8.182950019836426,-6.406050205230713,-1.4070000648498535
1753059239109,8.034000396728516,-5.875050067901611,-0.7459500432014465
1753059239141,,,-0.7800000309944153
1753059239142,7.888050556182861,-6.033000469207764,-0.8059500455856323
1753059239169,7.264050483703613,-5.293050289154053,-0.9810000658035278
1753059239203,7.326000213623047,-4.426050186157227,-1.29705011844635
1753059239237,7.411950588226318,-5.44605016708374,-2.31000018119812
1753059239269,7.44795036315918,-6.013950347900391,-2.032050132751465
1753059239279,7.564950466156006,-6.193050384521484,-0.6100500226020813
1753059239302,,,-0.5790000557899475
1753059239303,8.008049964904785,-6.775050163269043,
1753059239337,8.06100082397461,-6.373050212860107,-0.4159500300884247
1753059239339,7.869000434875488,-5.892000198364258,-0.7750500440597534
1753059239369,,,-1.4700000286102295
1753059239370,8.278950691223145,-6.4930500984191895,
1753059239378,,,-1.696950078010559
1753059239379,8.686050415039062,-7.386000156402588,
1753059239403,8.676000595092773,-8.041950225830078,-1.4190000295639038
1753059239417,8.239950180053711,,-0.7489500641822815
1753059239418,,-7.821000576019287,
1753059239437,8.070000648498535,-7.455000400543213,-0.14100000262260437
1753059239466,8.02695083618164,-6.675000190734863,-0.37995001673698425
1753059239477,8.085000038146973,-6.652950286865234,-0.19305001199245453
1753059239497,8.044050216674805,-6.727050304412842,0.15000000596046448
1753059239516,8.463000297546387,-5.227950096130371,0.7150500416755676
1753059239550,6.574050426483154,-7.885950565338135,-1.2109500169754028
1753059239570,,,-0.7579500079154968
1753059239571,6.828000545501709,-6.499950408935547,
1753059239576,8.166000366210938,-3.1410000324249268,0.9760500192642212
1753059239601,,,1.3380000591278076
1753059239602,8.896050453186035,-2.53695011138916,
1753059239629,8.935050010681152,-2.4030001163482666,0.29205000400543213
1753059239661,8.212050437927246,-2.986950159072876,-0.6049500107765198
1753059239693,8.164050102233887,-5.329050064086914,0.9790500402450562
1753059239695,7.43595027923584,,0.7320000529289246
1753059239696,,-5.937000274658203,
1753059239715,9.385050773620605,-5.671050071716309,2.69100022315979
1753059239745,,,0.7939500212669373
1753059239746,9.283950805664062,-5.128050327301025,
1753059239778,8.302950859069824,-4.903050422668457,-0.39000001549720764
1753059239800,7.896000385284424,-5.391000270843506,-0.08100000023841858
1753059239814,7.5319504737854,-5.142000198364258,-0.9160500168800354
1753059239854,10.431000709533691,-7.216050148010254,-0.921000063419342
1753059239886,8.749950408935547,-7.9200005531311035,0.4620000123977661
1753059239910,6.993000507354736,-6.487950325012207,0.8689500689506531
1753059239914,6.13800048828125,-6.064050197601318,0.25095000863075256
1753059239962,6.234000205993652,,-0.8250000476837158
1753059239963,7.678050518035889,-5.202000141143799,
1753059239991,8.467950820922852,-7.243950366973877,-2.2759501934051514
1753059239992,8.643000602722168,,-2.7529501914978027
1753059239993,,-8.458050727844238,
1753059240025,8.85300064086914,-9.793950080871582,-2.8129501342773438
1753059240049,8.760000228881836,-9.576000213623047,-1.6660500764846802
1753059240057,6.478050231933594,-8.257050514221191,-1.2660000324249268
1753059240080,4.695000171661377,-6.615000247955322,-1.1490000486373901
1753059240105,6.20805025100708,-5.5489501953125,-1.01895010471344
1753059240111,8.206950187683105,-5.290950298309326,-1.6489500999450684
1753059240136,8.105999946594238,-5.401050090789795,-2.4870002269744873
1753059240170,6.070950508117676,-6.315000534057617,-2.419950008392334
1753059240196,,,-1.350000023841858
1753059240197,4.446000099182129,-8.793000221252441,
1753059240216,3.967050075531006,-9.973950386047363,-2.3959500789642334
1753059240230,,,-2.4870002269744873
1753059240231,3.658050060272217,-9.789000511169434,
1753059240278,,,-2.182950019836426
1753059240279,3.514050245285034,-8.54699993133545,-2.8560001850128174
1753059240297,3.8590502738952637,-6.877950191497803,-3.5620501041412354
1753059240309,4.029000282287598,-6.763050556182861,-3.6319501399993896
1753059240329,4.261050224304199,,-1.6870501041412354
1753059240330,,-6.3510003089904785,
1753059240361,6.703050136566162,-5.002950191497803,0.8179500102996826
1753059240383,,,1.6800000667572021
1753059240384,6.772950172424316,-3.973950147628784,
1753059240390,5.662050247192383,-4.6080002784729,0.49695003032684326
1753059240411,5.379000186920166,-6.418050289154053,-1.5870001316070557
1753059240442,5.3580002784729,-8.414999961853027,-2.4130501747131348
1753059240474,4.374000072479248,,-2.7360000610351562
1753059240475,,-8.650050163269043,
1753059240508,1.7640000581741333,-5.797950267791748,-2.5609500408172607
1753059240543,1.374000072479248,-4.491000175476074,-3.579000234603882
1753059240567,2.628000020980835,,-4.600950241088867
1753059240568,,-5.853000164031982,
1753059240594,,,-7.144050121307373
1753059240595,6.78000020980835,-9.214950561523438,
1753059240618,,,-5.238000392913818
1753059240619,7.057950496673584,-10.110000610351562,
1753059240627,8.133000373840332,-11.07705020904541,-3.43500018119812
1753059240647,9.289050102233887,-12.246000289916992,-4.528950214385986
1753059240668,10.098000526428223,-12.682050704956055,-4.872000217437744
1753059240688,10.467000961303711,-13.765950202941895,-2.7340500354766846
1753059240721,,,16.630050659179688
1753059240722,5.133000373840332,-15.792000770568848,
1753059240726,3.9310503005981445,-17.281051635742188,13.132050514221191
1753059240746,,,3.775050163269043
1753059240747,5.4340500831604,-12.853950500488281,
1753059240776,4.3309502601623535,,1.3429501056671143
1753059240777,,-5.322000026702881,
1753059240805,6.262950420379639,-1.2060000896453857,0.1360500007867813
1753059240836,10.13700008392334,-5.731050491333008,-4.483950138092041
1753059240865,8.086950302124023,-6.805950164794922,-4.120050430297852
1753059240894,6.442050457000732,-9.234000205993652,0.12600000202655792
1753059240931,6.234000205993652,-9.402000427246094,1.612950086593628
1753059240944,6.829950332641602,-9.787050247192383,0.4639500081539154
1753059240990,,,-0.9499500393867493
1753059240991,6.505050182342529,-9.414000511169434,-1.5700501203536987
1753059241023,5.310000419616699,-8.805000305175781,-2.9130001068115234
1753059241057,,,-3.009000062942505
1753059241058,5.722050189971924,-7.0219502449035645,
1753059241063,,,-0.8880000710487366
1753059241064,6.186000347137451,-5.628000259399414,
1753059241094,7.243950366973877,-5.3580002784729,-0.5070000290870667
1753059241103,8.925000190734863,-5.269050121307373,-0.42795002460479736
1753059241129,10.70205020904541,-4.855050086975098,-0.9280500411987305
1753059241167,11.980051040649414,-4.623000144958496,0.1099500060081482
1753059241202,9.202950477600098,-5.961000442504883,1.0740000009536743
1753059241224,6.100050449371338,-7.314000129699707,1.3830000162124634
1753059241246,4.2970499992370605,-6.732000350952148,1.081950068473816
1753059241266,,,0.8329500555992126
1753059241267,3.888000249862671,-6.354000091552734,
1753059241288,,,-0.5190000534057617
1753059241289,6.49500036239624,-8.599050521850586,
1753059241317,7.273050308227539,-12.169050216674805,-2.239950180053711
1753059241349,6.093000411987305,,0.9280500411987305
1753059241350,5.1160502433776855,-11.974950790405273,
1753059241360,3.813000202178955,-7.342950344085693,5.367000102996826
1753059241393,,,3.277050256729126
1753059241394,4.141050338745117,-6.663000106811523,
1753059241415,4.615950107574463,-6.612000465393066,1.7809500694274902
1753059241420,4.216050148010254,-6.828000545501709,1.446000099182129
1753059241439,,,2.2930500507354736
1753059241440,4.039050102233887,-7.0909504890441895,
1753059241461,4.267950057983398,-7.471950531005859,3.44700026512146
1753059241490,,,4.744950294494629
1753059241491,4.720950126647949,-8.038949966430664,
1753059241526,5.161050319671631,,5.974950313568115
1753059241527,,-8.599050521850586,
1753059241559,,,5.224050045013428
1753059241560,5.149050235748291,-10.201050758361816,5.2069501876831055
1753059241595,2.092050075531006,-8.518050193786621,5.113950252532959
1753059241623,1.5750000476837158,-7.6710004806518555,4.756950378417969
1753059241658,1.7419500350952148,-7.4239501953125,5.596950054168701
1753059241693,,,6.028050422668457
1753059241694,2.8630502223968506,-7.678050518035889,
1753059241698,3.049950122833252,,5.9320502281188965
1753059241699,,-7.438050270080566,
1753059241731,2.9230501651763916,-7.33305025100708,5.8720502853393555
1753059241767,2.7240002155303955,-7.1170501708984375,6.034950256347656
1753059241777,2.8530001640319824,-6.849000453948975,6.78000020980835
1753059241803,,,6.385050296783447
1753059241804,2.5660500526428223,-6.958950519561768,
1753059241840,2.0029501914978027,-6.913950443267822,6.129000186920166
1753059241873,1.5870001316070557,-7.1509504318237305,6.69795036315918
1753059241876,1.350000023841858,-7.1010003089904785,6.8710503578186035
1753059241906,1.1080501079559326,-6.979050159454346,6.528000354766846
1753059241936,0.9640500545501709,-6.94005012512207,6.421050071716309
1753059241961,1.3429501056671143,-7.045950412750244,6.9120001792907715
1753059241983,1.599000096321106,-6.957000255584717,7.062000274658203
1753059242019,1.7280000448226929,-6.708000183105469,6.97605037689209
1753059242048,1.2400500774383545,-6.757950305938721,6.756000518798828
1753059242084,,,6.715050220489502
1753059242085,1.1010000705718994,-6.943050384521484,6.660000324249268
1753059242115,0.9430500268936157,-7.0819501876831055,6.5209503173828125
1753059242151,1.0909500122070312,-7.07205057144165,6.687000274658203
1753059242154,,,6.799050331115723
1753059242155,1.5610500574111938,,
1753059242156,,-7.0000505447387695,
1753059242187,1.921950101852417,-6.853950500488281,6.817950248718262
1753059242222,2.1060001850128174,-6.7510504722595215,6.775050163269043
1753059242258,2.4060001373291016,-6.799050331115723,6.756000518798828
1753059242273,2.6760001182556152,-6.799050331115723,6.8710503578186035
1753059242293,,,6.663000106811523
1753059242294,2.26200008392334,-6.900000095367432,
1753059242329,,,6.402000427246094
1753059242330,1.852950096130371,-6.961950302124023,
1753059242333,1.7760001420974731,-6.982950210571289,6.3510003089904785
1753059242352,1.8859500885009766,,6.672000408172607
1753059242353,,-7.074000358581543,
1753059242388,,,6.639000415802002
1753059242389,1.9120501279830933,-7.216050148010254,
1753059242392,1.8649500608444214,-7.246950149536133,6.382050514221191
1753059242421,,,6.235950469970703
1753059242422,2.101950168609619,-7.255950450897217,
1753059242456,,,6.2410502433776855
1753059242457,2.359950065612793,-7.222950458526611,6.090000152587891
1753059242491,2.2740001678466797,-7.110000133514404,5.940000057220459
1753059242528,1.867050051689148,-7.125000476837158,5.892000198364258
1753059242565,1.8330000638961792,-7.213050365447998,5.817000389099121
1753059242572,2.0970001220703125,-7.243950366973877,5.844000339508057
1753059242601,2.1229500770568848,,5.731050491333008
1753059242602,,-7.165050506591797,
1753059242639,2.1570000648498535,-7.04295015335083,5.530050277709961
1753059242671,,,5.37000036239624
1753059242672,2.6359500885009766,-7.086000442504883,5.260050296783447
1753059242708,,,5.046000003814697
1753059242709,2.9040000438690186,-7.261050224304199,
1753059242711,,-7.4239501953125,5.101950168609619
1753059242745,3.7609500885009766,-7.666050434112549,4.836000442504883
1753059242781,,,4.359000205993652
1753059242782,4.194000244140625,-7.960050582885742,4.017000198364258
1753059242817,,,3.9120001792907715
1753059242818,5.013000011444092,-8.938950538635254,3.559950113296509
1753059242849,5.032050132751465,-8.664000511169434,3.2560501098632812
1753059242893,4.660950183868408,-7.843050479888916,3.4110002517700195
1753059242894,,-7.5319504737854,
1753059242907,4.945950031280518,-7.513050556182861,3.136050224304199
1753059242930,5.452950477600098,-7.9360504150390625,2.817000150680542
1753059242975,,,2.6569502353668213
1753059242976,5.868000507354736,-8.5489501953125,2.7310500144958496
1753059242987,6.4830002784729,-8.575950622558594,2.959050178527832
1753059243007,6.799050331115723,,3.0019500255584717
1753059243008,,-8.085000038146973,
1753059243043,6.969000339508057,-7.785000324249268,2.6569502353668213
1753059243047,7.14900016784668,-7.884000301361084,1.8480000495910645
1753059243080,,,1.081950068473816
1753059243081,7.122000217437744,-8.092050552368164,
1753059243115,,,0.556950032711029
1753059243116,6.739050388336182,-8.27400016784668,0.2580000162124634
1753059243152,5.533050060272217,-8.105999946594238,0.16005000472068787
1753059243180,6.130950450897217,-7.753950595855713,0.51705002784729
1753059243185,6.595950126647949,,0.5809500217437744
1753059243186,,-7.885950565338135,
1753059243219,6.694050312042236,-8.12505054473877,0.46605002880096436
1753059243250,6.6220502853393555,-8.178000450134277,0.21495001018047333
1753059243289,6.234000205993652,-8.058000564575195,-0.28200000524520874
1753059243325,5.578050136566162,-8.046000480651855,-0.8760000467300415
1753059243360,5.334000110626221,,-0.7609500288963318
1753059243361,,-8.302950859069824,
1753059243364,5.439000129699707,-8.37405014038086,-0.3829500079154968
1753059243397,,,-0.04305000230669975
1753059243398,5.707050323486328,-8.379000663757324,
1753059243403,5.95395040512085,-8.13705062866211,0.0880500078201294
1753059243435,6.013950347900391,-7.929000377655029,0.009000000543892384
1753059243471,5.986950397491455,-7.987050533294678,-0.2989500164985657
1753059243501,,,-0.7680000066757202
1753059243502,5.875050067901611,-8.068050384521484,
1753059243504,5.868000507354736,-8.085000038146973,-0.6649500131607056
1753059243542,5.809950351715088,-7.948050498962402,-0.4069500267505646
1753059243591,5.668950080871582,-7.72605037689209,-0.21705001592636108
1753059243627,5.307000160217285,-7.510050296783447,-0.544950008392334
1753059243664,,,-0.40905001759529114
1753059243665,5.559000492095947,-7.90500020980835,-0.15000000596046448
1753059243696,6.193050384521484,-10.125000953674316,0.1770000010728836
1753059243701,6.022950172424316,-11.13705062866211,0.6889500617980957
1753059243744,5.812950134277344,-11.671051025390625,1.4119501113891602
1753059243794,4.777950286865234,,2.785950183868408
1753059243795,4.612950325012207,-9.217050552368164,
1753059243800,4.575000286102295,,2.1229500770568848
1753059243801,,-6.511950492858887,
1753059243831,,,1.6609500646591187
1753059243832,4.491000175476074,-6.186000347137451,
1753059243863,4.363950252532959,-6.664950370788574,1.5700501203536987
1753059243910,,,2.770050048828125
1753059243911,4.234950065612793,-9.454050064086914,
1753059243948,,,2.9850001335144043
1753059243949,4.315950393676758,-10.216050148010254,2.0179500579833984
1753059243982,4.801950454711914,-9.327000617980957,1.374000072479248
1753059244012,4.615950107574463,,1.6800000667572021
1753059244013,,-8.410050392150879,
1753059244018,4.2709503173828125,-8.062950134277344,1.5580500364303589
1753059244049,,,1.1680500507354736
1753059244050,3.9160501956939697,-8.044050216674805,
1753059244080,3.5239500999450684,-8.242950439453125,0.7900500297546387
1753059244118,2.782050132751465,-8.644950866699219,0.6649500131607056
1753059244142,2.8369500637054443,-8.983050346374512,0.675000011920929
1753059244181,3.1020002365112305,-8.971050262451172,0.5430000424385071
1753059244217,3.201000213623047,-8.54699993133545,0.11700000613927841
1753059244218,,-8.227950096130371,
1753059244253,,,0.23895001411437988
1753059244254,3.1309502124786377,-8.110950469970703,
1753059244256,3.3130502700805664,-8.27400016784668,0.5530500411987305
1753059244291,3.8830502033233643,-8.56095027923584,0.921000063419342
1753059244325,4.438050270080566,-9.160050392150879,0.984000027179718
1753059244335,7.285050392150879,-11.508000373840332,2.470050096511841
1753059244362,8.544000625610352,-11.197050094604492,3.3510000705718994
1753059244396,,,3.733950138092041
1753059244397,8.647050857543945,-10.141050338745117,2.782050132751465
1753059244430,4.60605001449585,-7.72605037689209,1.3309500217437744
1753059244465,3.5689501762390137,-7.189050197601318,0.18105000257492065
1753059244502,,,-0.5650500059127808
1753059244503,4.052999973297119,-7.978950500488281,1.1059499979019165
1753059244527,6.1840500831604,-7.717950344085693,4.861950397491455
1753059244533,7.362000465393066,-8.302950859069824,5.427000045776367
1753059244564,7.393050193786621,-8.938950538635254,3.106950044631958
1753059244599,6.3510003089904785,,1.8979500532150269
1753059244600,,-8.79104995727539,
1753059244635,5.013000011444092,-8.118000030517578,0.1099500060081482
1753059244652,5.554050445556641,-7.672950267791748,0.10695000737905502
1753059244699,5.881950378417969,-7.237050533294678,1.0669500827789307
1753059244728,6.118950366973877,-6.979050159454346,1.7040001153945923
1753059244733,6.0859503746032715,-7.012050151824951,1.1650500297546387
1753059244765,5.977950096130371,-6.799050331115723,0.7939500212669373
1753059244801,5.925000190734863,,0.4710000157356262
1753059244802,,-6.588000297546387,
1753059244811,5.980050086975098,-6.583950519561768,-0.2560500204563141
1753059244837,6.007050514221191,-6.7920002937316895,-0.5500500202178955
1753059244872,6.073950290679932,-7.006950378417969,-0.7369500398635864
1753059244906,6.100050449371338,,-0.09795000404119492
1753059244907,,-7.386000156402588,
1753059244941,6.016050338745117,,0.6510000228881836
1753059244942,5.724000453948975,-7.81695032119751,
1753059244968,5.604000091552734,-9.009000778198242,0.42600002884864807
1753059244970,5.662050247192383,-8.716950416564941,0.05700000375509262
1753059244990,5.773950099945068,-8.414999961853027,-0.14805001020431519
1753059245021,6.289050102233887,-8.620950698852539,-0.2580000162124634
1753059245056,7.050000190734863,-9.66195011138916,-0.42600002884864807
1753059245069,6.7510504722595215,-11.643000602722168,1.7899501323699951
1753059245092,5.9730000495910645,-11.683050155639648,3.6790502071380615
1753059245119,4.680000305175781,-10.656000137329102,4.371000289916992
1753059245128,,,4.258950233459473
1753059245129,3.8490002155303955,-8.869950294494629,
1753059245154,5.347950458526611,-7.3399505615234375,5.986950397491455
1753059245186,6.8710503578186035,-6.913950443267822,5.278950214385986
1753059245190,6.844950199127197,-6.8110504150390625,3.724950075149536
1753059245220,,,2.4870002269744873
1753059245221,5.149050235748291,-6.772950172424316,
1753059245255,3.8520002365112305,-7.7059502601623535,1.434000015258789
1753059245267,3.5809502601623535,-9.696000099182129,1.204050064086914
1753059245292,3.0709500312805176,-9.016050338745117,1.9360500574111938
1753059245331,3.0430500507354736,-8.535000801086426,1.9560000896453857
1753059245332,,-8.440950393676758,
1753059245367,,,1.1680500507354736
1753059245368,4.126950263977051,-8.5420503616333,0.9670500755310059
1753059245403,4.132050037384033,-8.23799991607666,0.781950056552887
1753059245432,,,0.5239500403404236
1753059245433,4.017000198364258,-8.046000480651855,
1753059245468,,,0.33705002069473267
1753059245469,3.796950101852417,-7.900050163269043,0.20805001258850098
1753059245502,3.4210500717163086,-8.13705062866211,-0.05700000375509262
1753059245505,3.487950086593628,-8.053950309753418,-0.3160500228404999
1753059245539,3.189000129699707,-8.005949974060059,-0.07605000585317612
1753059245568,,,0.32505002617836
1753059245569,3.186000108718872,-8.038949966430664,0.5550000071525574
1753059245584,4.680000305175781,,0.6049500107765198
1753059245585,,-9.502050399780273,
1753059245606,5.7430500984191895,-10.053000450134277,0.6150000095367432
1753059245634,6.11400032043457,-9.931050300598145,0.35100001096725464
1753059245644,5.731050491333008,-9.415950775146484,-0.4420500099658966
1753059245669,4.945950031280518,,-1.1179500818252563
1753059245670,,-8.824950218200684,
1753059245703,4.335000038146973,-8.358000755310059,-1.4700000286102295
1753059245740,4.6180500984191895,-7.951050281524658,-1.4170501232147217
1753059245744,5.439000129699707,,-0.3469500243663788
1753059245745,,-8.587950706481934,
1753059245776,7.012050151824951,-10.339950561523438,2.11395001411438
1753059245808,8.407950401306152,-11.698050498962402,2.770050048828125
1753059245837,7.756950378417969,-8.892000198364258,2.218950033187866
1753059245868,6.439950466156006,-8.215950012207031,2.239950180053711
1753059245881,,,1.9290001392364502
1753059245882,4.6870503425598145,-7.8070502281188965,
1753059245904,4.984050273895264,-7.716000556945801,1.714050054550171
1753059245936,5.676000118255615,-7.560000419616699,1.4479501247406006
1753059245942,6.379950523376465,-7.386000156402588,1.38795006275177
1753059245966,6.78000020980835,-7.206000328063965,1.3549500703811646
1753059246002,6.634050369262695,-7.006950378417969,1.2880500555038452
1753059246032,5.928000450134277,-7.1700005531311035,0.687000036239624
1753059246069,5.707050323486328,-7.113000392913818,0.46605002880096436
1753059246080,6.265050411224365,-6.50700044631958,1.1560500860214233
1753059246100,6.543000221252441,-6.402000427246094,1.290000081062317
1753059246121,6.5400004386901855,-6.306000232696533,1.1490000486373901
1753059246155,6.5209503173828125,-6.2749505043029785,0.7680000066757202
1753059246159,6.712950229644775,-6.2440505027771,0.5209500193595886
1753059246181,6.796950340270996,-6.009000301361084,0.3559500277042389
1753059246215,6.916050434112549,-5.5759501457214355,0.3130500018596649
1753059246219,,,0.43995001912117004
1753059246220,7.306950569152832,-5.398050308227539,
1753059246251,7.81695032119751,-5.712000370025635,0.32805001735687256
1753059246286,7.3690505027771,-6.511950492858887,0.06405000388622284
1753059246298,5.928000450134277,-8.511000633239746,-0.4300500154495239
1753059246320,5.494050025939941,-7.930950164794922,-0.39900001883506775
1753059246350,5.571000099182129,-7.1170501708984375,-0.17400000989437103
1753059246358,6.660000324249268,-7.0000505447387695,0.5119500160217285
1753059246380,8.418000221252441,,0.7440000176429749
1753059246381,,-8.097000122070312,
1753059246410,9.054000854492188,-9.88800048828125,0.5670000314712524
1753059246440,7.999050617218018,-10.71405029296875,1.1149500608444214
1753059246470,4.990950107574463,-10.639050483703613,2.3650500774383545
1753059246501,4.182000160217285,-10.584000587463379,3.687000274658203
1753059246532,5.365050315856934,-9.319950103759766,3.438000202178955
1753059246562,,,1.8739501237869263
1753059246563,5.841000080108643,-8.212050437927246,1.1460000276565552
1753059246596,4.912050247192383,-8.050950050354004,0.559950053691864
1753059246627,4.2900004386901855,-7.921950340270996,0.7900500297546387
1753059246663,4.228050231933594,-7.957950592041016,1.2370500564575195
1753059246704,4.363950252532959,-8.010000228881836,1.120050072669983
1753059246714,,,0.6460500359535217
1753059246715,4.680000305175781,-8.164050102233887,
1753059246741,4.70205020904541,-8.395950317382812,0.6030000448226929
1753059246779,,,0.6700500249862671
1753059246780,4.639050006866455,-8.494050025939941,
1753059246821,4.5769500732421875,-8.381999969482422,0.4810500144958496
1753059246822,,-8.371950149536133,
1753059246855,4.729950428009033,-8.278950691223145,0.18900001049041748
1753059246881,4.879050254821777,-8.086950302124023,0.40905001759529114
1753059246921,4.9960503578186035,-7.8409504890441895,0.8209500312805176
1753059246961,5.250000476837158,-7.864050388336182,1.390950083732605
1753059247002,5.5489501953125,-7.896000385284424,0.6240000128746033
1753059247012,5.568000316619873,-7.600950241088867,-0.8779500126838684
1753059247037,5.761950492858887,-7.570050239562988,-1.2060000896453857
1753059247072,,,-1.0840500593185425
1753059247073,5.836950302124023,-7.675050258636475,-0.6700500249862671
1753059247107,5.7460503578186035,-8.587950706481934,0.034950003027915955
1753059247144,,,0.6820500493049622
1753059247145,5.544000148773193,-9.022950172424316,1.4070000648498535
1753059247151,8.379000663757324,-10.737000465393066,1.8600001335144043
1753059247187,8.947050094604492,-10.407000541687012,2.1280500888824463
1753059247221,8.065950393676758,-9.058950424194336,1.9990501403808594
1753059247230,5.194950103759766,-7.479000568389893,0.6100500226020813
1753059247258,4.192049980163574,-7.405050277709961,0.16200000047683716
1753059247302,4.323000431060791,-7.410000324249268,0.7300500273704529
1753059247339,6.514050483703613,-8.142000198364258,3.5329501628875732
1753059247375,,,2.110949993133545
1753059247376,7.1010003089904785,-7.951050281524658,
1753059247410,,,1.0150500535964966
1753059247411,6.313050270080566,-7.146000385284424,0.38700002431869507
1753059247452,6.438000202178955,-6.847050189971924,-0.1770000010728836
1753059247490,7.089000225067139,-6.8110504150390625,-0.14100000262260437
1753059247528,6.813000202178955,-6.5209503173828125,1.4310001134872437
1753059247561,6.382050514221191,-6.349050521850586,0.921000063419342
1753059247567,6.576000213623047,,0.544950008392334
1753059247571,,-6.3319501876831055,
1753059247600,,,0.3630000054836273
1753059247601,6.883050441741943,-6.20805025100708,
1753059247607,7.33305025100708,-6.259950160980225,0.1770000010728836
1753059247629,,,-0.16500000655651093
1753059247630,7.8070502281188965,-6.403950214385986,
1753059247659,,,-0.44700002670288086
1753059247660,7.776000499725342,-6.382050514221191,
1753059247694,,,-0.6169500350952148
1753059247695,6.895050525665283,-6.406050205230713,-0.4810500144958496
1753059247706,6.118950366973877,-7.1770501136779785,-0.2370000183582306
1753059247737,6.439950466156006,-7.302000522613525,0.2650500237941742
1753059247771,,,0.9979500770568848
1753059247772,6.655050277709961,-7.222950458526611,1.1610000133514404
1753059247804,7.018950462341309,-7.588950157165527,0.7320000529289246
1753059247806,7.278000354766846,-8.494050025939941,-0.0019500000635161996
1753059247837,7.1610002517700195,-9.402000427246094,-0.5209500193595886
1753059247869,6.715050220489502,-10.054950714111328,-0.5410500168800354
1753059247892,,,1.194000005722046
1753059247893,5.683050155639648,,
1753059247922,,,2.6710500717163086
1753059247923,4.90500020980835,-8.398050308227539,
1753059247926,4.860000133514404,-7.6870503425598145,3.5119502544403076
1753059247955,5.3580002784729,-7.965000152587891,2.69100022315979
1753059247987,5.134950160980225,-8.410050392150879,1.7929500341415405
1753059248015,4.2370500564575195,-8.563950538635254,1.201050043106079
1753059248047,4.869000434875488,-9.016050338745117,0.5190000534057617
1753059248076,5.620950222015381,-8.892000198364258,0.43995001912117004
1753059248104,,,0.5910000205039978
1753059248105,5.4559502601623535,-8.701950073242188,0.6600000262260437
1753059248125,4.908000469207764,-8.105999946594238,0.4330500066280365
1753059248153,4.69005012512207,,0.11700000613927841
1753059248154,,-8.008049964904785,
1753059248181,4.507950305938721,-8.13705062866211,-0.05895000323653221
1753059248183,4.570050239562988,-8.29995059967041,0.12600000202655792
1753059248206,4.920000076293945,-8.367000579833984,0.5790000557899475
1753059248226,5.257050037384033,-8.290950775146484,0.8230500221252441
1753059248242,5.2860002517700195,-8.230950355529785,0.7030500173568726
1753059248261,,,0.2959500253200531
1753059248262,5.046000003814697,-8.190000534057617,
1753059248285,,,-0.16500000655651093
1753059248286,4.8480000495910645,-8.14905071258545,
1753059248312,4.740000247955322,-8.068050384521484,-0.5719500184059143
1753059248321,4.750050067901611,-7.927050590515137,-0.7630500197410583
1753059248344,,,-0.6600000262260437
1753059248345,4.891050338745117,-7.833000183105469,
1753059248375,,,-0.43995001912117004
1753059248376,4.954950332641602,-7.819050312042236,
1753059248410,4.836000442504883,-7.824000358581543,-0.1860000044107437
1753059248436,4.6870503425598145,-7.909950256347656,-0.16500000655651093
1753059248439,,,-0.45705002546310425
1753059248440,4.740000247955322,-7.831050395965576,
1753059248459,4.869000434875488,-7.678050518035889,-0.7129500508308411
1753059248480,5.113950252532959,-7.62000036239624,-0.8490000367164612
1753059248499,5.971050262451172,-8.188050270080566,-0.5959500074386597
1753059248520,7.623000144958496,-9.196050643920898,0.07095000147819519
1753059248541,9.004050254821777,-9.835050582885742,1.0909500122070312
1753059248558,8.998950004577637,-9.90195083618164,1.659000039100647
1753059248595,7.086000442504883,-9.619050025939941,1.374000072479248
1753059248626,,,0.33000001311302185
1753059248627,5.331000328063965,-9.390000343322754,-0.6270000338554382
1753059248640,4.579950332641602,-8.793000221252441,-1.180050015449524
1753059248659,5.323950290679932,-8.056050300598145,-0.019050000235438347
1753059248688,,,1.8649500608444214
1753059248689,6.229050159454346,-7.350000381469727,
1753059248717,6.6220502853393555,-7.195950508117676,2.4820501804351807
1753059248746,5.716950416564941,,1.0290000438690186
1753059248747,,-7.371000289916992,
1753059248757,5.628000259399414,-7.429050445556641,0.9070500135421753
1753059248777,6.172050476074219,-7.612950325012207,0.7110000252723694
1753059248805,6.967050552368164,-7.768950462341309,0.700950026512146
1753059248834,,,0.856950044631958
1753059248835,7.630050182342529,-7.972050189971924,
1753059248836,,,0.8760000467300415
1753059248837,7.831050395965576,-7.993950366973877,
1753059248862,7.246950149536133,-7.675050258636475,0.4759500324726105
1753059248894,6.478050231933594,-7.486050128936768,-0.21705001592636108
1753059248895,6.129000186920166,,-0.687000036239624
1753059248896,,-7.414050579071045,
1753059248927,6.150000095367432,-7.249050140380859,-0.6990000605583191
1753059248958,6.385050296783447,-7.06695032119751,-0.4210500121116638
1753059248975,6.6910505294799805,-6.694050312042236,0.7849500179290771
1753059249022,6.679050445556641,-6.736950397491455,0.739050030708313
1753059249050,6.727050304412842,-7.102950572967529,0.06195000186562538
1753059249055,6.820950508117676,-7.0600504875183105,-0.1189500093460083
1753059249088,6.763050556182861,,-0.37995001673698425
1753059249089,,-6.832950115203857,
1753059249116,6.655050277709961,-6.586050510406494,-0.45900002121925354
1753059249141,6.687000274658203,-6.789000511169434,-0.9619500637054443
1753059249172,6.50700044631958,-6.8520002365112305,-1.0170000791549683
1753059249174,6.265050411224365,,-0.9480000734329224
1753059249175,,-6.8680500984191895,
1753059249195,6.202950477600098,-7.017000198364258,-0.8490000367164612
1753059249222,6.12600040435791,-7.122000217437744,-0.7030500173568726
1753059249253,6.11400032043457,-7.173000335693359,-0.39705002307891846
1753059249288,,,0.4900500178337097
1753059249289,6.394050121307373,-7.362000465393066,
1753059249293,6.820950508117676,-7.908000469207764,0.44505003094673157
1753059249331,7.254000186920166,,0.20805001258850098
1753059249332,,-8.623050689697266,-0.0499500036239624
1753059249374,6.688950538635254,-10.44105052947998,-0.33705002069473267
1753059249415,5.544000148773193,-9.769950866699219,1.009950041770935
1753059249444,5.623050212860107,-7.684950351715088,1.76895010471344
1753059249484,6.289050102233887,-7.429050445556641,1.8139500617980957
1753059249526,4.8670501708984375,-8.191950798034668,1.6279500722885132
1753059249532,3.95205020904541,-9.265050888061523,1.7329500913619995
1753059249571,,,1.6900501251220703
1753059249572,4.354950428009033,-9.471000671386719,1.204050064086914
1753059249611,5.026950359344482,-9.07395076751709,0.6559500098228455
1753059249640,5.281050205230713,-8.506050109863281,0.11400000751018524
1753059249659,5.145000457763672,-8.206950187683105,-0.0690000057220459
1753059249669,4.800000190734863,-8.046000480651855,-0.09300000220537186
1753059249689,4.507950305938721,-8.215950012207031,0.06405000388622284
1753059249732,4.294950008392334,-8.452950477600098,0.49995002150535583
1753059249753,4.213050365447998,-8.844000816345215,1.276050090789795
1753059249774,,,1.0270500183105469
1753059249775,4.278000354766846,-8.809950828552246,
1753059249788,4.351950168609619,-8.688000679016113,0.5719500184059143
1753059249833,,,0.004050000105053186
1753059249834,4.570050239562988,-8.692950248718262,-0.4900500178337097
1753059249864,4.623000144958496,-8.743050575256348,-0.3559500277042389
1753059249869,4.7659502029418945,-8.671050071716309,0.4069500267505646
1753059249893,,,1.3230000734329224
1753059249894,4.774050235748291,-8.55405044555664,
1753059249924,4.837950229644775,-8.716950416564941,1.6680001020431519
1753059249928,4.833000183105469,-8.692950248718262,1.3380000591278076
1753059249957,4.774050235748291,-8.446050643920898,0.984000027179718
1753059249986,4.600950241088867,-8.23799991607666,0.33000001311302185
1753059250017,4.279950141906738,-8.097000122070312,-1.1749500036239624
1753059250049,4.495950222015381,-8.094000816345215,-1.3930500745773315
1753059250073,,,-0.8280000686645508
1753059250074,5.475000381469727,-8.347949981689453,
1753059250105,6.141000270843506,-8.583000183105469,0.6600000262260437
1753059250135,,,1.8840000629425049
1753059250136,6.4110002517700195,-9.021000862121582,
1753059250161,6.021000385284424,-8.731050491333008,1.3450500965118408
1753059250165,,,0.9120000600814819
1753059250166,5.578050136566162,-8.3100004196167,
1753059250186,,,0.5410500168800354
1753059250187,5.311950206756592,-8.06100082397461,
1753059250216,,,0.3349500298500061
1753059250217,5.269050121307373,-8.032050132751465,
1753059250248,5.365050315856934,-7.9360504150390625,0.42600002884864807
1753059250274,,,0.8179500102996826
1753059250275,5.869950294494629,-7.785000324249268,
1753059250313,,,1.1770501136779785
1753059250314,6.118950366973877,-7.693950176239014,
1753059250334,,,0.9760500192642212
1753059250335,6.217050075531006,-7.777950286865234,
1753059250365,6.142950057983398,-7.966950416564941,0.7249500155448914
1753059250385,6.559950351715088,-8.097000122070312,1.1059499979019165
1753059250403,7.053000450134277,-8.008049964904785,1.3830000162124634
1753059250422,,,1.429050087928772
1753059250423,7.306950569152832,-7.785000324249268,
1753059250444,,,1.1539500951766968
1753059250445,7.266000270843506,-7.579950332641602,
1753059250471,6.943050384521484,-7.438050270080566,0.5500500202178955
1753059250482,6.588000297546387,-7.393050193786621,0.1189500093460083
1753059250502,,,-0.26805001497268677
1753059250503,6.5209503173828125,-7.44795036315918,
1753059250532,6.736950397491455,-7.462050437927246,-0.4350000321865082
1753059250563,6.727050304412842,-7.0600504875183105,-0.12600000202655792
1753059250593,,,0.556950032711029
1753059250594,6.804000377655029,-6.907050132751465,
1753059250619,6.823050498962402,-7.105050563812256,0.46905001997947693
1753059250623,6.79395055770874,-7.126950263977051,0.544950008392334
1753059250649,6.712950229644775,-7.003050327301025,0.7110000252723694
1753059250668,,,0.6220500469207764
1753059250669,6.7510504722595215,-7.0000505447387695,
1753059250708,6.7699503898620605,-7.141050338745117,0.32805001735687256
1753059250720,6.8520002365112305,,0.12600000202655792
1753059250722,,-7.243950366973877,
1753059250740,,,0.23895001411437988
1753059250768,7.093950271606445,,0.43995001912117004
1753059250769,7.4239501953125,-7.228050231933594,
1753059250798,,,0.7489500641822815
1753059250799,7.3690505027771,-7.711050510406494,0.9810000658035278
1753059250819,6.595950126647949,-7.756950378417969,0.9450000524520874
1753059250849,,,0.6529500484466553
1753059250850,6.2749505043029785,-7.5010504722595215,
1753059250869,6.235950469970703,-7.132050514221191,0.3750000298023224
1753059250878,6.4609503746032715,-7.053000450134277,0.004050000105053186
1753059250898,6.631050109863281,,-0.2560500204563141
1753059250899,,-7.216050148010254,
1753059250918,6.687000274658203,,-0.013950000517070293
1753059250919,,-7.237050533294678,
1753059250950,,,0.37800002098083496
1753059250951,6.7420501708984375,-7.231950283050537,
1753059250982,,,0.6580500602722168
1753059250983,6.799050331115723,-7.371000289916992,
1753059251016,6.687000274658203,-7.642050266265869,0.7110000252723694
1753059251019,6.643050193786621,-7.70205020904541,0.4930500090122223
1753059251044,6.528000354766846,-7.6710004806518555,0.3079500198364258
1753059251082,,,0.16005000472068787
1753059251083,6.50700044631958,-7.62000036239624,-0.04305000230669975
1753059251115,6.406050205230713,-7.711050510406494,-0.0690000057220459
1753059251117,6.3919501304626465,-7.759050369262695,0.13395000994205475
1753059251157,6.379950523376465,-7.6710004806518555,0.3750000298023224
1753059251189,5.9730000495910645,-7.114950180053711,0.3540000021457672
1753059251195,5.865000247955322,-7.06695032119751,0.1579500138759613
1753059251216,5.959050178527832,-7.180050373077393,-0.09495000541210175
1753059251244,,,-0.13095000386238098
1753059251245,6.141000270843506,-7.198950290679932,
1753059251277,6.363000392913818,-7.174950122833252,0.004050000105053186
1753059251309,6.694050312042236,-7.600950241088867,0.13095000386238098
1753059251336,6.672000408172607,-7.560000419616699,0.3559500277042389
1753059251362,,,0.3730500042438507
1753059251363,6.663000106811523,-7.291950225830078,
1753059251397,6.859050273895264,-7.2709503173828125,0.11700000613927841
1753059251439,6.9310503005981445,-7.429050445556641,-0.10500000417232513
1753059251481,,,0.16500000655651093
1753059251482,6.784950256347656,-7.7659502029418945,0.4810500144958496
1753059251521,6.880050182342529,-7.27500057220459,0.7270500063896179
1753059251557,7.453050136566162,,0.14100000262260437
1753059251558,,-7.0600504875183105,
1753059251601,6.552000522613525,-7.158000469207764,-0.08595000207424164
1753059251633,6.3349504470825195,-7.266000270843506,0.2770500183105469
1753059251672,,,0.21495001018047333
1753059251673,6.873000144958496,-7.1509504318237305,
1753059251713,6.366000175476074,,0.1380000114440918
1753059251714,6.484950542449951,-7.062000274658203,
1753059251753,7.050000190734863,-7.086000442504883,0.031050002202391624
1753059251794,7.086000442504883,-6.904050350189209,0.2749500274658203
1753059251831,,,0.07905000448226929
1753059251832,7.033950328826904,-7.218000411987305,
1753059251871,,,0.32805001735687256
1753059251872,7.242000579833984,-7.026000499725342,0.44700002670288086
1753059251907,,,0.3850500285625458
1753059251908,7.249050140380859,-6.652950286865234,
1753059251927,7.374000549316406,-6.756000518798828,0.1770000010728836
1753059251931,7.504950523376465,-6.817950248718262,0.07395000010728836
1753059251969,7.354050159454346,-6.841950416564941,0.2530499994754791
1753059251998,7.144050121307373,-6.892050266265869,0.4140000343322754
1753059252037,,,0.27195000648498535
1753059252038,7.189050197601318,-7.003050327301025,0.21300001442432404
1753059252048,6.885000228881836,,0.20295001566410065
1753059252049,,-6.96405029296875,
1753059252069,7.026000499725342,-6.919050216674805,-0.009000000543892384
1753059252100,,,-0.1360500007867813
1753059252108,6.970950126647949,-7.315950393676758,-0.12195000797510147
1753059252132,6.865950107574463,-7.3690505027771,0.0499500036239624
1753059252153,7.350000381469727,-7.062000274658203,0.37995001673698425
1753059252167,7.872000217437744,-6.9210004806518555,0.35100001096725464
1753059252195,7.788000583648682,-6.5620503425598145,0.40905001759529114
1753059252213,7.258950233459473,-6.069000244140625,0.39900001883506775
1753059252236,,,0.2939999997615814
1753059252237,7.258950233459473,-6.172050476074219,
1753059252247,7.52400016784668,-6.604950428009033,0.20805001258850098
1753059252266,7.636950492858887,-6.816000461578369,0.25095000863075256
1753059252291,7.648950576782227,-6.696000099182129,0.3679500222206116
1753059252310,7.422000408172607,-6.373050212860107,0.32505002617836
1753059252326,7.3470001220703125,-6.526050090789795,-0.0019500000635161996
1753059252345,,,-0.2560500204563141
1753059252346,7.306950569152832,-7.015050411224365,
1753059252365,,,-0.034950003027915955
1753059252366,7.3999505043029785,-7.146000385284424,
1753059252386,7.612950325012207,-6.817950248718262,0.39705002307891846
1753059252405,7.606050491333008,-6.591000080108643,0.5879999995231628
1753059252427,7.3810505867004395,,0.49500003457069397
1753059252428,,-6.390000343322754,
1753059252445,,,0.4300500154495239
1753059252446,7.465050220489502,-6.073950290679932,
1753059252465,7.498050212860107,-6.11400032043457,0.29205000400543213
1753059252490,7.294950485229492,-6.435000419616699,0.021000001579523087
1753059252508,,,-0.0019500000635161996
1753059252509,7.114950180053711,-6.511950492858887,
1753059252537,7.252050399780273,-6.375000476837158,0.17400000989437103
1753059252564,,,0.2530499994754791
1753059252565,7.282950401306152,-6.670050144195557,0.22905001044273376
1753059252584,6.955050468444824,-7.096050262451172,0.3079500198364258
1753059252616,7.1170501708984375,-6.628950119018555,0.3829500079154968
1753059252648,7.3810505867004395,,0.33900001645088196
1753059252649,,-6.39900016784668,
1753059252667,7.4239501953125,-7.315950393676758,0.2959500253200531
1753059252697,7.335000514984131,-7.213050365447998,0.7350000143051147
1753059252725,,,0.9640500545501709
1753059252726,7.375950336456299,-6.928050518035889,0.7300500273704529
1753059252754,,,0.4039500057697296
1753059252755,7.246950149536133,-6.624000549316406,
1753059252782,7.299000263214111,-6.543000221252441,0.17400000989437103
1753059252807,7.1700005531311035,-6.484950542449951,0.21300001442432404
1753059252835,7.182000160217285,-6.835050106048584,0.32295000553131104
1753059252864,7.3399505615234375,-7.098000526428223,0.41805002093315125
1753059252881,7.1610002517700195,-7.06695032119751,0.5770500302314758
1753059252925,7.07205057144165,-6.571950435638428,0.6150000095367432
1753059252955,,,0.2580000162124634
1753059252956,7.3690505027771,-6.9210004806518555,
1753059252987,7.411950588226318,-7.036050319671631,0.5430000424385071
1753059253040,7.254000186920166,-7.242000579833984,0.6030000448226929
1753059253070,7.024050235748291,-6.8110504150390625,0.226950004696846
1753059253099,,,0.3660000264644623
1753059253100,7.338000297546387,-7.174950122833252,0.38700002431869507
1753059253124,7.228050231933594,-7.105050563812256,0.6559500098228455
1753059253155,7.062000274658203,-6.706050395965576,0.7300500273704529
1753059253184,,,0.4900500178337097
1753059253185,7.114950180053711,-6.745950222015381,0.16695000231266022
1753059253198,,,0.04500000178813934
1753059253199,6.69795036315918,-7.492950439453125,
1753059253219,6.4110002517700195,-7.477050304412842,0.07605000585317612
1753059253244,6.523950099945068,-7.359000205993652,0.14100000262260437
1753059253273,6.772950172424316,,0.22905001044273376
1753059253274,,-7.294950485229492,
1753059253278,6.6409502029418945,-7.192050457000732,0.3130500018596649
1753059253298,6.454050540924072,-7.132050514221191,0.4069500267505646
1753059253317,6.283950328826904,-7.141050338745117,0.4159500300884247
1753059253337,6.130950450897217,-7.158000469207764,0.38700002431869507
1753059253357,6.234000205993652,,0.4519500136375427
1753059253358,,-7.201050281524658,
1753059253377,6.454050540924072,-7.156050205230713,0.5650500059127808
1753059253397,,,0.5860500335693359
1753059253398,6.679050445556641,-7.120050430297852,
1753059253419,6.639000415802002,-7.108050346374512,0.49695003032684326
1753059253446,6.406050205230713,-7.206000328063965,0.4159500300884247
1753059253476,6.109950065612793,-7.3399505615234375,0.1980000138282776
1753059253506,,,0.021000001579523087
1753059253507,6.124050140380859,-7.696950435638428,
1753059253535,,,0.16695000231266022
1753059253536,6.2719502449035645,-7.813950538635254,0.4540500342845917
1753059253566,6.670050144195557,-7.468950271606445,0.7150500416755676
1753059253589,6.8710503578186035,-7.299000263214111,0.8020500540733337
1753059253595,7.038000106811523,-7.195950508117676,0.7579500079154968
1753059253618,7.285050392150879,-7.258950233459473,0.6649500131607056
1753059253651,7.378050327301025,,0.45900002121925354
1753059253652,,-7.579950332641602,
1753059253655,7.204050540924072,-7.903050422668457,0.20295001566410065
1753059253682,6.847050189971924,,-0.07605000585317612
1753059253683,,-8.109000205993652,
1753059253713,6.390000343322754,-8.092050552368164,-0.2989500164985657
1753059253715,6.097950458526611,-8.038949966430664,-0.49500003457069397
1753059253744,5.94195032119751,-7.912050247192383,-0.5359500050544739
1753059253774,5.845950126647949,-7.692000389099121,-0.6289500594139099
1753059253804,6.058950424194336,-7.411950588226318,-0.4330500066280365
1753059253832,,,-0.28005000948905945
1753059253833,6.306000232696533,-7.515000343322754,-0.226950004696846
1753059253864,,,-0.05895000323653221
1753059253865,6.262950420379639,-7.180050373077393,
1753059253890,6.307950496673584,-6.946950435638428,0.09495000541210175
1753059253892,6.459000110626221,,0.021000001579523087
1753059253893,,-6.816000461578369,
1753059253913,6.624000549316406,-6.76800012588501,-0.14100000262260437
1753059253944,,,-0.28395000100135803
1753059253945,6.823050498962402,-6.832950115203857,
1753059253976,,,-0.5650500059127808
1753059253977,6.88800048828125,-7.102950572967529,
1753059254006,7.216050148010254,-7.174950122833252,-0.7800000309944153
1753059254012,7.63200044631958,-6.949950218200684,-0.6289500594139099
1753059254037,7.780950546264648,-6.924000263214111,-0.3630000054836273
1753059254067,7.599000453948975,-6.967050552368164,-0.1579500138759613
1753059254071,7.4239501953125,,-0.013950000517070293
1753059254072,,-6.897000312805176,
1753059254102,7.444950580596924,-6.775050163269043,0.25995001196861267
1753059254132,7.71405029296875,-6.7510504722595215,0.5689499974250793
1753059254157,7.8259501457214355,-6.5209503173828125,0.6700500249862671
1753059254183,7.663050174713135,-6.3349504470825195,0.5530500411987305
1753059254213,7.681950569152832,-6.3510003089904785,0.37095001339912415
1753059254214,,-6.592950344085693,
1753059254233,7.668000221252441,-6.892050266265869,-0.3349500298500061
1753059254252,,,-0.5550000071525574
1753059254253,7.6870503425598145,-7.32105016708374,
1753059254271,7.510050296783447,-7.503000259399414,-0.556950032711029
1753059254290,7.180050373077393,-7.141050338745117,-0.35100001096725464
1753059254310,7.174950122833252,-6.784950256347656,-0.12600000202655792
1753059254328,7.33305025100708,-6.511950492858887,-0.10005000233650208
1753059254348,7.443000316619873,-6.475950241088867,-0.1360500007867813
1753059254368,7.507950305938721,-6.816000461578369,-0.12195000797510147
1753059254392,7.503000259399414,-7.138950347900391,0.0019500000635161996
1753059254408,7.3660502433776855,,0.22500000894069672
1753059254409,,-7.156050205230713,
1753059254428,7.216050148010254,,0.2580000162124634
1753059254429,,-7.084050178527832,
1753059254464,7.173000335693359,-7.04295015335083,0.18105000257492065
1753059254467,7.303950309753418,-6.994950294494629,0.14100000262260437
1753059254487,7.552950382232666,-6.892050266265869,0.1789500117301941
1753059254507,7.716000556945801,-6.916050434112549,0.13095000386238098
1753059254527,7.666050434112549,,0.08295000344514847
1753059254528,,-7.06695032119751,
1753059254551,7.465050220489502,-7.267950534820557,0.22200001776218414
1753059254572,7.254000186920166,-7.363950252532959,0.49995002150535583
1753059254600,7.114950180053711,-7.414050579071045,0.7180500626564026
1753059254621,7.129050254821777,-7.426050186157227,0.856950044631958
1753059254627,7.299000263214111,-7.426050186157227,1.0939500331878662
1753059254654,7.507950305938721,-7.375950336456299,1.374000072479248
1753059254681,7.455000400543213,-7.351950168609619,1.194000005722046
1753059254686,7.1700005531311035,-7.323000431060791,1.009950041770935
1753059254706,6.76800012588501,-7.477050304412842,0.9259500503540039
1753059254726,,,1.065000057220459
1753059254727,6.373050212860107,-7.483950138092041,
1753059254747,6.142950057983398,-7.122000217437744,1.4700000286102295
1753059254773,5.767050266265869,-6.763050556182861,1.6110000610351562
1753059254793,5.182950019836426,-6.615000247955322,1.051050066947937
1753059254812,4.266000270843506,-6.627000331878662,0.46905001997947693
1753059254824,3.52905011177063,,0.20100000500679016
1753059254825,,-6.895050525665283,
1753059254844,3.2440502643585205,-7.375950336456299,0.17400000989437103
1753059254879,3.5430002212524414,-8.068050384521484,0.5620500445365906
1753059254901,4.204050064086914,-8.676000595092773,1.2300000190734863
1753059254904,4.8480000495910645,-8.947050094604492,1.977000117301941
1753059254928,,,2.193000078201294
1753059254929,5.1160502433776855,-9.018000602722168,
1753059254950,5.089950084686279,-9.085050582885742,1.8619500398635864
1753059254977,4.789950370788574,-9.009000778198242,1.6540501117706299
1753059255007,4.540950298309326,-8.998950004577637,1.390950083732605
1753059255025,4.504950046539307,-8.506050109863281,1.5630000829696655
1753059255056,4.771050453186035,,1.735050082206726
1753059255057,,-8.355000495910645,
1753059255087,,,1.765950083732605
1753059255088,4.999050140380859,-8.194950103759766,1.6900501251220703
1753059255120,5.194950103759766,,1.3759500980377197
1753059255121,,-8.029950141906738,
1753059255123,5.085000038146973,-7.954950332641602,1.048050045967102
1753059255153,5.20395040512085,-8.044050216674805,0.7969500422477722
1753059255185,5.587950229644775,-8.166000366210938,0.6910500526428223
1753059255218,6.0420002937316895,-8.194950103759766,0.6990000605583191
1753059255222,5.877000331878662,-8.074950218200684,0.7180500626564026
1753059255250,5.860950469970703,-8.202000617980957,0.25095000863075256
1753059255278,6.022950172424316,-8.5420503616333,-0.7230000495910645
1753059255281,5.511000156402588,-8.932050704956055,-1.6009501218795776
1753059255305,4.88100004196167,-9.27495002746582,-2.379000186920166
1753059255335,,,-3.0520501136779785
1753059255336,4.639050006866455,-9.676950454711914,
1753059255368,4.480950355529785,-9.820950508117676,-2.2960500717163086
1753059255399,,,-1.0150500535964966
1753059255400,4.654050350189209,-8.452950477600098,-0.6649500131607056
1753059255431,,,-1.0860000848770142
1753059255432,5.764950275421143,-7.3999505043029785,
1753059255439,5.788950443267822,-7.6870503425598145,-1.8360000848770142
1753059255465,5.338950157165527,-8.221050262451172,-2.580000162124634
1753059255492,,,-2.8339500427246094
1753059255493,4.654050350189209,-8.56095027923584,
1753059255499,4.048050403594971,-8.929950714111328,-2.4370501041412354
1753059255527,3.7320001125335693,-9.41100025177002,-1.5150001049041748
1753059255560,3.7800002098083496,-9.756000518798828,-0.6270000338554382
1753059255592,5.2669501304626465,-9.454050064086914,0.6079500317573547
1753059255623,5.817000389099121,-8.755050659179688,0.2959500253200531
1753059255624,,-8.248050689697266,
1753059255650,6.28695011138916,-7.945950508117676,-0.42795002460479736
1753059255658,6.1650004386901855,-7.575000286102295,-0.7180500626564026
1753059255680,6.021000385284424,-7.354050159454346,-0.8280000686645508
1753059255709,6.001950263977051,-7.3309502601623535,-0.7750500440597534
1753059255717,6.1840500831604,-7.513050556182861,-0.6910500526428223
1753059255742,6.3349504470825195,-7.836000442504883,-0.6340500116348267
1753059255768,6.258000373840332,-7.954950332641602,-0.4620000123977661
1753059255797,6.2719502449035645,-8.215950012207031,-0.2749500274658203
1753059255822,5.95395040512085,-8.370000839233398,-0.6439500451087952
1753059255845,,,-0.9739500284194946
1753059255846,5.583000183105469,-8.401050567626953,
1753059255855,,,-1.2559500932693481
1753059255890,4.819050312042236,-8.302950859069824,-1.051050066947937
1753059255923,4.855050086975098,-8.259000778198242,-0.6960000395774841
1753059255949,,,-1.0030500888824463
1753059255950,4.548000335693359,-8.245050430297852,
1753059255955,4.32105016708374,-8.302950859069824,-0.7230000495910645
1753059255976,4.194000244140625,-8.236050605773926,-0.12195000797510147
1753059256004,,,0.06195000186562538
1753059256005,4.230000019073486,-8.30505084991455,
1753059256031,,,-0.286950021982193
1753059256032,4.434000015258789,-8.475000381469727,
1753059256035,4.73805046081543,-8.563950538635254,-0.5929500460624695
1753059256065,5.092050075531006,,-0.6840000152587891
1753059256066,,-8.515950202941895,
1753059256100,5.758050441741943,-8.491950035095215,-0.5550000071525574
1753059256131,6.571950435638428,-7.921950340270996,-0.45000001788139343
1753059256164,6.648000240325928,-7.7500505447387695,-0.4210500121116638
1753059256193,6.070950508117676,-7.848000526428223,-0.5809500217437744
1753059256214,5.452950477600098,-8.118000030517578,-0.09000000357627869
1753059256245,5.571000099182129,,0.05505000427365303
1753059256246,,-8.440950393676758,
1753059256269,5.875050067901611,-8.662050247192383,0.1360500007867813
1753059256272,5.980050086975098,-8.607000350952148,0.18900001049041748
1753059256293,5.695050239562988,-8.446050643920898,0.10200000554323196
1753059256315,5.338950157165527,-8.331000328063965,-0.2530499994754791
1753059256335,5.178000450134277,-8.236050605773926,-0.6670500040054321
1753059256370,5.176050186157227,-8.13705062866211,-0.8059500455856323
1753059256372,5.269050121307373,-8.0149507522583,-0.687000036239624
1753059256397,,,-0.5689499974250793
1753059256398,5.5159502029418945,-8.038949966430664,
1753059256423,5.772000312805176,-8.278950691223145,-0.6220500469207764
1753059256449,5.566050052642822,-8.343000411987305,-0.7060500383377075
1753059256450,,,-0.5020500421524048
1753059256451,5.230950355529785,-8.130000114440918,
1753059256478,5.298000335693359,-7.903050422668457,-0.37800002098083496
1753059256498,5.808000087738037,-7.893000602722168,-0.531000018119812
1753059256520,6.058950424194336,-7.71405029296875,-0.5089499950408936
1753059256540,,,-0.33705002069473267
1753059256541,6.034950256347656,-7.588950157165527,
1753059256549,6.301050186157227,-7.965000152587891,-0.34200000762939453
1753059256569,6.696000099182129,-8.479949951171875,-0.6460500359535217
1753059256589,6.624000549316406,-8.295000076293945,-0.5910000205039978
1753059256611,6.370050430297852,-7.999050617218018,-0.31800001859664917
1753059256629,6.1210503578186035,-7.891050338745117,-0.4330500066280365
1753059256649,5.704950332641602,-7.759050369262695,-0.5119500160217285
1753059256668,5.523000240325928,-7.627050399780273,-0.5140500068664551
1753059256688,5.620950222015381,-7.681950569152832,-0.7510500550270081
1753059256709,5.841000080108643,-7.8259501457214355,-0.9400500655174255
1753059256728,5.928000450134277,-7.9170002937316895,-0.9049500226974487
1753059256748,5.83905029296875,-7.908000469207764,-0.9499500393867493
1753059256768,5.587950229644775,-7.915050506591797,-0.9360000491142273
1753059256789,5.5489501953125,-8.176050186157227,-1.0360500812530518
1753059256812,5.659050464630127,-8.32395076751709,-1.0459500551223755
1753059256832,,,-0.9949500560760498
1753059256833,5.901000499725342,-8.239950180053711,
1753059256854,5.8560004234313965,-8.170949935913086,-1.0939500331878662
1753059256867,5.65500020980835,-8.191950798034668,-1.0699501037597656
1753059256887,5.611950397491455,-8.202000617980957,-1.0120500326156616
1753059256908,5.716950416564941,,-0.9790500402450562
1753059256909,,-8.145000457763672,
1753059256937,5.877000331878662,-8.152050018310547,-0.9480000734329224
1753059256967,,,-0.9379500150680542
1753059256968,6.073950290679932,-8.27595043182373,-0.9139500260353088
1753059256999,,,-0.8250000476837158
1753059257000,5.974950313568115,-8.295000076293945,
1753059257006,5.959050178527832,-8.33595085144043,-0.8640000224113464
1753059257033,6.157050132751465,-8.616000175476074,-0.9880500435829163
1753059257061,5.980050086975098,-8.293050765991211,-0.7750500440597534
1753059257068,5.632950305938721,-7.675050258636475,-0.5740500092506409
1753059257088,5.407950401306152,-7.338000297546387,-0.6480000019073486
1753059257121,5.386050224304199,-7.273050308227539,-0.8899500370025635
1753059257125,5.6670002937316895,-7.414050579071045,-0.9859500527381897
1753059257153,,,-0.7510500550270081
1753059257154,5.83905029296875,-7.467000484466553,
1753059257185,5.971050262451172,-7.575000286102295,-0.40905001759529114
1753059257216,6.358950138092041,-7.7470502853393555,-0.41100001335144043
1753059257248,6.442050457000732,-7.9960503578186035,-0.6529500484466553
1753059257281,6.054000377655029,-8.236050605773926,-0.5239500403404236
1753059257303,6.130950450897217,-8.221050262451172,-0.21300001442432404
1753059257335,5.770050048828125,,-0.11205000430345535
1753059257336,,-7.744950294494629,
1753059257367,5.688000202178955,-7.477050304412842,-0.31995001435279846
1753059257393,6.532950401306152,-7.659000396728516,-0.687000036239624
1753059257402,6.610050201416016,,-0.5809500217437744
1753059257403,,-7.62000036239624,
1753059257430,6.484950542449951,-7.7500505447387695,-0.43995001912117004
1753059257464,6.318000316619873,,-0.6079500317573547
1753059257465,,-8.110950469970703,
1753059257496,,,-0.6390000581741333
1753059257497,6.021000385284424,-7.8760504722595215,
1753059257502,5.911050319671631,,-0.8760000467300415
1753059257503,,-7.741950511932373,
1753059257540,5.875050067901611,-7.9360504150390625,-1.38795006275177
1753059257542,,,-1.5490500926971436
1753059257543,5.985000133514404,-7.951050281524658,
1753059257575,6.247950077056885,-7.9360504150390625,-1.5679501295089722
1753059257581,6.229050159454346,-8.008049964904785,-1.6800000667572021
1753059257612,5.8720502853393555,-8.227950096130371,-1.8330000638961792
1753059257644,,,-1.9720500707626343
1753059257645,5.602050304412842,-8.437050819396973,-1.9650001525878906
1753059257668,5.4370503425598145,-8.200050354003906,-1.7539501190185547
1753059257709,,,-1.5220500230789185
1753059257710,5.461050033569336,-7.618050575256348,-1.5340501070022583
1753059257720,5.587950229644775,-6.94005012512207,-1.5799500942230225
1753059257754,5.805000305175781,-7.1610002517700195,-1.5340501070022583
1753059257785,6.169050216674805,-7.465050220489502,-1.4860501289367676
1753059257809,6.268050193786621,-7.522050380706787,-0.9739500284194946
1753059257818,,,-0.7729500532150269
1753059257819,6.256050109863281,-7.398000240325928,
1753059257842,6.439950466156006,-7.294950485229492,-0.9280500411987305
1753059257867,6.688950538635254,-7.374000549316406,-1.1749500036239624
1753059257891,6.801000118255615,-7.417050361633301,-1.4170501232147217
1753059257898,6.679050445556641,-7.363950252532959,-1.443000078201294
1753059257924,,,-1.4070000648498535
1753059257925,6.481050491333008,-7.599000453948975,
1753059257958,6.294000148773193,-7.716000556945801,-1.2559500932693481
1753059257991,,,-0.9670500755310059
1753059257993,6.51900053024292,-7.468950271606445,
1753059258019,,,-1.0429500341415405
1753059258020,6.346950531005859,-7.207950115203857,-1.1490000486373901
1753059258053,6.253050327301025,-7.386000156402588,-1.158000111579895
1753059258058,6.5209503173828125,-7.63200044631958,-1.1730000972747803
1753059258085,,,-1.0980000495910645
1753059258086,6.5620503425598145,-7.824000358581543,
1753059258096,,,-0.9600000381469727
1753059258097,6.279000282287598,-7.795050144195557,
1753059258119,6.1840500831604,-7.81695032119751,-0.9690000414848328
1753059258145,,,-1.0270500183105469
1753059258146,6.246000289916992,-7.7059502601623535,
1753059258170,,,-0.9619500637054443
1753059258171,6.265050411224365,-7.507950305938721,
1753059258176,6.150000095367432,-7.546050548553467,-1.048050045967102
1753059258204,6.0420002937316895,-7.752000331878662,-1.2330000400543213
1753059258236,,,-1.3639500141143799
1753059258237,6.049950122833252,-7.927050590515137,-1.218000054359436
1753059258263,,,-1.0049999952316284
1753059258264,6.250950336456299,-7.6080002784729,
1753059258296,,,-0.9619500637054443
1753059258297,6.361050128936768,-7.711050510406494,-0.9310500621795654
1753059258323,,,-0.7990500330924988
1753059258324,5.989950180053711,-7.963050365447998,
1753059258358,5.734050273895264,-7.627050399780273,-0.556950032711029
1753059258388,,,-0.3730500042438507
1753059258389,6.169050216674805,-7.63200044631958,
1753059258394,6.130950450897217,-7.762050151824951,-0.5550000071525574
1753059258419,,,-0.814050018787384
1753059258420,6.1020002365112305,-8.020050048828125,
1753059258451,,,-0.8110500574111938
1753059258452,6.246000289916992,-8.14905071258545,
1753059258455,6.502050399780273,-8.245050430297852,-0.5290500521659851
1753059258486,6.732000350952148,-8.427000045776367,-0.37095001339912415
1753059258519,,,-0.32295000553131104
1753059258520,6.646050453186035,-8.628000259399414,-0.14595000445842743
1753059258532,,,0.17205001413822174
1753059258533,5.566050052642822,-7.668000221252441,
1753059258554,5.355000019073486,-7.234950542449951,0.20100000500679016
1753059258586,5.488950252532959,,-0.05700000375509262
1753059258587,,-7.2109503746032715,
1753059258592,5.832000255584717,-7.3999505043029785,-0.4210500121116638
1753059258621,6.289050102233887,,-0.3040500283241272
1753059258622,,-7.398000240325928,
1753059258653,6.531000137329102,-7.16295051574707,0.17400000989437103
1753059258678,,,0.022950001060962677
1753059258679,6.469050407409668,-7.7059502601623535,
1753059258711,6.166950225830078,-7.954950332641602,-0.3439500033855438
1753059258713,5.848950386047363,-8.062950134277344,-0.4639500081539154
1753059258742,5.623050212860107,-8.14905071258545,-0.3829500079154968
1753059258751,5.430000305175781,-8.032050132751465,-0.10005000233650208
1753059258775,5.311950206756592,-7.857000350952148,0.21705001592636108
1753059258807,5.413050174713135,-7.873950481414795,0.3040500283241272
1753059258840,5.527950286865234,,0.14595000445842743
1753059258841,,-7.809000492095947,
1753059258871,,,-0.27195000648498535
1753059258872,5.841000080108643,-7.681950569152832,-0.35100001096725464
1753059258903,6.076050281524658,-7.699050426483154,-0.361050009727478
1753059258935,6.190950393676758,-7.800000190734863,-0.3079500198364258
1753059258949,,,-0.25995001196861267
1753059258950,6.39900016784668,-7.9960503578186035,
1753059258976,,,-0.19095000624656677
1753059258977,6.325050354003906,-7.812000274658203,
1753059259009,6.319950103759766,-7.800000190734863,-0.04500000178813934
1753059259051,,,-0.27195000648498535
1753059259052,6.615000247955322,-8.317049980163574,
1753059259083,6.13800048828125,-7.753950595855713,0.16200000047683716
1753059259103,6.100050449371338,-7.647000312805176,0.06705000251531601
1753059259108,6.235950469970703,,-0.05505000427365303
1753059259109,,-7.720950603485107,
1753059259127,,,0.025950001552700996
1753059259128,6.235950469970703,-7.753950595855713,
1753059259154,6.2719502449035645,-7.696950435638428,0.23895001411437988
1753059259174,6.4519500732421875,-7.579950332641602,0.47805002331733704
1753059259206,6.676950454711914,,0.46905001997947693
1753059259207,6.708000183105469,-7.575000286102295,0.3730500042438507
1753059259239,,,0.2440500110387802
1753059259240,6.667050361633301,-7.141050338745117,
1753059259247,6.946950435638428,-7.053000450134277,-0.10500000417232513
1753059259272,7.548000335693359,-7.267950534820557,-0.505050003528595
1753059259305,7.735050201416016,-7.1700005531311035,-0.8059500455856323
1753059259307,7.156050205230713,-6.7099504470825195,-0.687000036239624
1753059259336,6.721950531005859,-6.5400004386901855,-0.5290500521659851
1753059259362,,,-0.3750000298023224
1753059259363,6.592950344085693,-6.5620503425598145,
1753059259394,,,-0.06705000251531601
1753059259395,6.652950286865234,-6.69795036315918,0.23895001411437988
1753059259428,6.76800012588501,-7.572000503540039,0.4740000367164612
1753059259429,,-7.881000518798828,
1753059259460,6.739050388336182,-7.79295015335083,1.0390501022338867
1753059259465,6.7009501457214355,-7.672950267791748,1.1509500741958618
1753059259493,6.6910505294799805,-7.630050182342529,0.6630000472068787
1753059259524,,,0.20295001566410065
1753059259525,6.555000305175781,-7.567950248718262,-0.009000000543892384
1753059259556,6.2989501953125,-7.756950378417969,-0.16500000655651093
1753059259589,6.250950336456299,-8.002950668334961,-0.18900001049041748
1753059259620,,,-0.05700000375509262
1753059259621,6.430050373077393,-9.196050643920898,
1753059259626,5.9350504875183105,-9.199950218200684,-0.11700000613927841
1753059259652,5.218950271606445,-8.748000144958496,-0.12600000202655792
1753059259663,4.885950088500977,-8.28600025177002,-0.0880500078201294
1753059259683,,,-0.019050000235438347
1753059259710,5.287950038909912,-7.315950393676758,-0.025950001552700996
1753059259750,5.725950241088867,-7.314000129699707,-0.37095001339912415
1753059259762,5.6670002937316895,,-1.1370000839233398
1753059259763,,-7.54395055770874,
1753059259782,5.341050148010254,-7.6110005378723145,-1.1680500507354736
1753059259806,,,-1.125
1753059259807,5.073000431060791,-7.630050182342529,
1753059259840,5.017950057983398,-7.821000576019287,-1.0270500183105469
1753059259841,,,-0.8710500597953796
1753059259842,5.092050075531006,-8.0149507522583,
1753059259873,5.329050064086914,,
1753059259874,,-8.239950180053711,-0.7030500173568726
1753059259881,5.7430500984191895,,-0.37995001673698425
1753059259882,,-8.470050811767578,
1753059259905,,,-0.19095000624656677
1753059259906,5.985000133514404,-8.781000137329102,
1753059259934,5.824950218200684,-9.006000518798828,-0.1789500117301941
1753059259941,5.544000148773193,-8.892000198364258,-0.14805001020431519
1753059259965,5.614050388336182,-8.571000099182129,-0.1789500117301941
1753059259991,,,-0.28905001282691956
1753059259992,5.712000370025635,-8.13705062866211,
1753059260022,,,-0.28395000100135803
1753059260023,5.662050247192383,-8.110950469970703,-0.2749500274658203
1753059260056,,,-0.16905000805854797
1753059260057,5.239950180053711,-8.60205078125,
1753059260084,,,0.05895000323653221
1753059260085,4.9870500564575195,-8.700000762939453,
1753059260127,5.2260003089904785,-9.4350004196167,-0.7579500079154968
1753059260159,5.194950103759766,-9.241050720214844,-0.5119500160217285
1753059260201,5.338950157165527,,0.022950001060962677
1753059260202,,-8.202000617980957,
1753059260233,5.427000045776367,-7.450050354003906,-0.8590500354766846
1753059260238,,,-1.2109500169754028
1753059260239,5.284050464630127,-7.467000484466553,
1753059260277,5.254950046539307,-7.729950428009033,-1.290000081062317
1753059260279,5.389050483703613,-7.930950164794922,-0.7699500322341919
1753059260319,5.712000370025635,-7.884000301361084,0.037950001657009125
1753059260363,6.358950138092041,-8.173049926757812,0.013950000517070293
1753059260405,6.145050525665283,-8.491950035095215,-0.8730000257492065
1753059260443,5.202000141143799,-7.591950416564941,-1.1850000619888306
1753059260480,,,-2.0680501461029053
1753059260481,5.133000373840332,-7.411950588226318,-1.446000099182129
1753059260496,4.548000335693359,-7.218000411987305,-0.4810500144958496
1753059260523,5.026950359344482,-7.819050312042236,0.6340500116348267
1753059260558,,,2.02305006980896
1753059260559,7.134000301361084,-9.763050079345703,1.3120501041412354
1753059260596,,,1.0890001058578491
1753059260597,7.951050281524658,-10.017000198364258,0.9120000600814819
1753059260636,4.44795036315918,-8.245050430297852,0.16905000805854797
1753059260680,4.173000335693359,-7.582050323486328,0.7849500179290771
1753059260721,7.132050514221191,-8.200050354003906,2.379000186920166
1753059260762,,,1.5390000343322754
1753059260763,8.065950393676758,-8.077950477600098,
1753059260805,6.936000347137451,-8.161050796508789,0.8329500555992126
1753059260846,6.4110002517700195,-7.407000541687012,1.0069500207901
1753059260853,6.531000137329102,-6.721950531005859,1.2919501066207886
1753059260889,6.385050296783447,-6.658050537109375,1.0309500694274902
1753059260928,6.141000270843506,-6.718050479888916,0.8899500370025635
1753059260947,,,1.7950501441955566
1753059260948,6.021000385284424,-6.38700008392334,
1753059260953,6.307950496673584,-6.234000205993652,1.7590501308441162
1753059260986,6.655050277709961,-6.157050132751465,1.5940500497817993
1753059260991,,,1.4550000429153442
1753059260992,6.816000461578369,-6.1050004959106445,
1753059261012,7.012050151824951,,1.4029500484466553
1753059261013,,-6.3919501304626465,
1753059261040,,,1.2490500211715698
1753059261041,7.267950534820557,-7.252050399780273,
1753059261077,6.928050518035889,-8.434050559997559,1.158000111579895
1753059261090,,,2.470050096511841
1753059261091,4.9960503578186035,-9.502050399780273,
1753059261110,,,1.960050106048584
1753059261111,4.729950428009033,-9.540000915527344,
1753059261139,4.612950325012207,-9.153000831604004,1.7190001010894775
1753059261171,4.623000144958496,-8.880000114440918,1.4220000505447388
1753059261201,,,1.7640000581741333
1753059261202,4.513050079345703,-7.855050563812256,
1753059261210,4.429050445556641,-7.582050323486328,1.8480000495910645
1753059261230,4.35705041885376,,1.7280000448226929
1753059261231,,-7.527000427246094,
1753059261271,4.240050315856934,-7.575000286102295,1.7310000658035278
1753059261303,4.675050258636475,-8.439000129699707,2.080049991607666
1753059261309,4.879050254821777,-8.805000305175781,2.290950059890747
1753059261345,4.695000171661377,-8.773950576782227,2.140050172805786
1753059261376,4.507950305938721,-8.491950035095215,1.8570001125335693
1753059261389,4.903050422668457,-8.37405014038086,1.5679501295089722
1753059261408,5.035050392150879,-8.278950691223145,1.5799500942230225
1753059261444,5.062950134277344,-8.145000457763672,1.2250500917434692
1753059261485,5.118000030517578,-8.122950553894043,0.9520500302314758
1753059261523,5.025000095367432,-8.523000717163086,0.9880500435829163
1753059261530,4.79295015335083,-8.551950454711914,1.6249500513076782
1753059261565,5.00100040435791,-8.81505012512207,1.426050066947937
1753059261568,,,1.1100000143051147
1753059261569,5.058000087738037,-9.00195026397705,
1753059261607,5.049000263214111,-9.181050300598145,0.9240000247955322
1753059261649,5.239950180053711,-9.267000198364258,1.1010000705718994
1753059261680,,,0.7489500641822815
1753059261681,4.929000377655029,-8.571000099182129,
1753059261704,,,0.5190000534057617
1753059261705,4.527000427246094,-8.583000183105469,
1753059261707,4.267950057983398,-8.86305046081543,0.5070000290870667
1753059261745,4.182000160217285,-8.986950874328613,0.598050057888031
1753059261775,5.023050308227539,-9.010950088500977,0.24795001745224
1753059261795,5.350950241088867,-9.040050506591797,0.22200001776218414
1753059261804,5.272050380706787,-8.809950828552246,0.44700002670288086
1753059261824,5.068050384521484,,0.49995002150535583
1753059261825,,-8.559000015258789,
1753059261851,,,0.22905001044273376
1753059261852,5.089950084686279,-8.530050277709961,
1753059261872,5.394000053405762,-8.494050025939941,0.1960500031709671
1753059261910,5.713950157165527,-8.499000549316406,0.39705002307891846
1753059261924,5.359950065612793,-8.29800033569336,0.5190000534057617
1753059261944,4.932000160217285,,0.5839500427246094
1753059261971,,,0.559950053691864
1753059261972,4.716000080108643,-8.170949935913086,
1753059261996,4.840950012207031,-8.36205005645752,0.6649500131607056
1753059262003,5.121000289916992,-8.282999992370605,0.9910500645637512
1753059262024,,,1.2709500789642334
1753059262025,5.805000305175781,-8.437050819396973,
1753059262049,6.79395055770874,-8.734050750732422,1.01895010471344
1753059262069,7.777950286865234,-8.5489501953125,0.7350000143051147
1753059262100,7.945950508117676,,0.5959500074386597
1753059262101,,-7.912050247192383,
1753059262103,7.16295051574707,-7.471950531005859,1.0980000495910645
1753059262129,,,1.2919501066207886
1753059262130,6.186000347137451,-7.450050354003906,
1753059262155,,,1.1220000982284546
1753059262156,5.44605016708374,-7.474050521850586,
1753059262161,,,0.5959500074386597
1753059262162,4.740000247955322,-7.498050212860107,
1753059262195,,,-0.21495001018047333
1753059262196,4.045950412750244,-7.656000137329102,
1753059262202,,,-0.43800002336502075
1753059262203,3.778050184249878,-7.975050449371338,
1753059262221,3.9400501251220703,-8.383950233459473,-0.20100000500679016
1753059262249,4.479000091552734,-8.6089506149292,0.16500000655651093
1753059262280,5.176050186157227,-8.761950492858887,0.19305001199245453
1753059262310,5.6569504737854,,0.11400000751018524
1753059262311,,-8.728950500488281,
1753059262341,5.877000331878662,-8.32395076751709,-0.06705000251531601
1753059262371,5.64300012588501,-7.708950519561768,-0.8689500689506531
1753059262392,5.299950122833252,-7.981950283050537,-0.35100001096725464
1753059262399,5.230950355529785,-8.12505054473877,0.6169500350952148
1753059262422,5.362950325012207,-8.122950553894043,1.1100000143051147
1753059262453,5.57295036315918,-8.062950134277344,1.0170000791549683
1753059262459,,,0.32805001735687256
1753059262460,5.892000198364258,-8.13705062866211,
1753059262479,6.190950393676758,-8.226000785827637,-0.25095000863075256
1753059262500,6.39900016784668,-8.379000663757324,-0.3439500033855438
1753059262539,6.313050270080566,-8.5420503616333,-0.16005000472068787
1753059262569,5.599950313568115,-8.359950065612793,-0.13395000994205475
1753059262598,,,0.24795001745224
1753059262599,5.503950119018555,-8.005949974060059,-0.12195000797510147
1753059262629,5.95395040512085,-7.933950424194336,-0.14805001020431519
1753059262637,6.0259504318237305,-7.836000442504883,-0.12195000797510147
1753059262657,5.9659504890441895,,-0.1770000010728836
1753059262658,,-7.954950332641602,
1753059262693,5.892000198364258,-8.182950019836426,-0.19095000624656677
1753059262723,5.868000507354736,-8.449049949645996,-0.2770500183105469
1753059262737,5.998950481414795,-7.896000385284424,-0.05205000191926956
1753059262763,5.860950469970703,-7.9170002937316895,-0.22200001776218414
1753059262798,,,-0.25095000863075256
1753059262799,5.616000175476074,-8.017950057983398,-0.27195000648498535
1753059262831,5.587950229644775,-7.908000469207764,-0.31095001101493835
1753059262838,5.781000137329102,-7.930950164794922,-0.2580000162124634
1753059262866,,,-0.15495000779628754
1753059262867,5.892000198364258,-7.8600006103515625,
1753059262908,5.881950378417969,,-0.2989500164985657
1753059262909,,-7.831050395965576,
1753059262915,5.491950035095215,-7.600950241088867,-0.22200001776218414
1753059262944,5.544000148773193,-7.680000305175781,-0.41805002093315125
1753059262984,5.698050498962402,-7.9200005531311035,-0.3949500322341919
1753059263025,,,0.013950000517070293
1753059263026,6.354000091552734,-8.413050651550293,0.12405000627040863
1753059263034,6.567000389099121,-8.30505084991455,0.05700000375509262
1753059263068,6.20805025100708,-8.094000816345215,-0.1770000010728836
1753059263075,5.691000461578369,-7.951050281524658,-0.4710000157356262
1753059263107,,,-0.6600000262260437
1753059263108,5.319000244140625,-7.933950424194336,
1753059263113,5.140050411224365,-7.945950508117676,-0.7440000176429749
1753059263138,5.214000225067139,-8.062950134277344,-0.7900500297546387
1753059263172,5.506050109863281,-8.317049980163574,-0.7680000066757202
1753059263175,5.728950500488281,-8.329050064086914,-0.544950008392334
1753059263201,5.820000171661377,-8.140049934387207,-0.1189500093460083
1753059263243,5.940000057220459,-8.202000617980957,0.034950003027915955
1753059263283,,,-0.06195000186562538
1753059263284,5.920050144195557,-8.206950187683105,-0.1189500093460083
1753059263292,6.013950347900391,-7.672950267791748,-0.29205000400543213
1753059263325,6.229050159454346,-7.642050266265869,-0.5260500311851501
1753059263332,6.259950160980225,-7.6710004806518555,-0.6580500602722168
1753059263364,,,-0.7060500383377075
1753059263365,6.033000469207764,-7.659000396728516,
1753059263401,5.836950302124023,-7.756950378417969,-0.7849500179290771
1753059263441,,,-0.8490000367164612
1753059263442,6.1210503578186035,-8.226000785827637,
1753059263450,6.1050004959106445,,-0.3630000054836273
1753059263451,,-7.963050365447998,
1753059263484,5.986950397491455,-7.720950603485107,-0.43800002336502075
1753059263525,6.021000385284424,-7.575000286102295,-0.5879999995231628
1753059263530,,,-0.8160000443458557
1753059263531,6.370050430297852,-7.32105016708374,
1753059263566,6.531000137329102,-7.6710004806518555,-0.7990500330924988
1753059263597,6.463950157165527,-8.161050796508789,-0.8020500540733337
1753059263640,5.977950096130371,-8.086950302124023,-0.37800002098083496
1753059263682,,,-0.2959500253200531
1753059263683,6.118950366973877,-7.492950439453125,-0.47805002331733704
1753059263688,6.598050117492676,-7.4239501953125,-0.6510000228881836
1753059263731,6.574050426483154,-7.3690505027771,-0.6790500283241272
1753059263776,,,-0.6340500116348267
1753059263777,6.117000102996826,-7.588950157165527,-0.7579500079154968
1753059263816,6.31095027923584,-8.346000671386719,-0.8710500597953796
1753059263827,6.082950115203857,-7.780950546264648,-0.7129500508308411
1753059263857,5.887050151824951,-7.663050174713135,-0.6510000228881836
1753059263897,,,-0.5209500193595886
1753059263898,5.923050403594971,-7.666050434112549,-0.3130500018596649
1753059263928,6.100050449371338,-7.656000137329102,-0.31095001101493835
1753059263969,6.415950298309326,-7.395000457763672,-0.5670000314712524
1753059263986,,,-0.556950032711029
1753059264035,6.459000110626221,,-0.43800002336502075
1753059264036,6.382050514221191,-7.444950580596924,
1753059264045,6.342000484466553,-7.993950366973877,-0.7660500407218933
1753059264076,6.199950218200684,-8.12505054473877,-0.9949500560760498
1753059264110,,,-0.9280500411987305
1753059264111,6.070950508117676,-8.085000038146973,-0.6169500350952148
1753059264146,6.081000328063965,-7.930950164794922,-0.4519500136375427
1753059264183,6.289050102233887,-7.654050350189209,-0.7579500079154968
1753059264184,6.363000392913818,,-0.8470500111579895
1753059264188,,-7.660950183868408,
1753059264221,6.38700008392334,-7.6080002784729,-0.5719500184059143
1753059264223,6.363000392913818,,-0.3439500033855438
1753059264224,,-7.564950466156006,
1753059264255,6.306000232696533,-7.680000305175781,-0.39195001125335693
1753059264263,6.439950466156006,,-0.6889500617980957
1753059264264,,-7.855050563812256,
1753059264294,6.342000484466553,-7.812000274658203,-0.559950053691864
1753059264335,6.223950386047363,-7.623000144958496,-0.44505003094673157
1753059264343,6.157050132751465,-7.3810505867004395,-0.7939500212669373
1753059264375,5.962950229644775,-7.375950336456299,-0.8520000576972961
1753059264414,5.986950397491455,-7.467000484466553,-0.7510500550270081
1753059264451,,,-0.33195000886917114
1753059264452,6.2440505027771,-7.7470502853393555,-0.21000000834465027
1753059264486,6.484950542449951,-7.615050315856934,-0.3349500298500061
1753059264501,,,-0.5740500092506409
1753059264502,6.883050441741943,-7.375950336456299,
1753059264555,7.077000141143799,-7.206000328063965,-0.544950008392334
1753059264561,6.703050136566162,,-0.11400000751018524
1753059264563,,-7.048050403594971,
1753059264596,6.526050090789795,-7.741950511932373,-0.26805001497268677
1753059264636,6.579000473022461,-8.142000198364258,-0.3630000054836273
1753059264640,6.739050388336182,-7.941000461578369,-0.2939999997615814
1753059264672,6.487950325012207,-7.753950595855713,-0.35100001096725464
1753059264712,6.303000450134277,-7.699050426483154,-0.4540500342845917
1753059264713,,-7.3660502433776855,
1753059264719,,,-0.361050009727478
1753059264720,6.229050159454346,-6.840000152587891,
1753059264743,6.634050369262695,,-0.8419500589370728
1753059264744,,-6.754050254821777,
1753059264783,7.036050319671631,-6.844950199127197,-0.9190500378608704
1753059264820,,,-0.5770500302314758
1753059264821,7.218000411987305,-7.1610002517700195,-0.27000001072883606
1753059264860,6.531000137329102,-7.309050559997559,-0.34200000762939453
1753059264861,,-7.048050403594971,
1753059264897,,,-0.5959500074386597
1753059264898,6.447000503540039,-6.9210004806518555,
1753059264935,,,-0.556950032711029
1753059264936,6.706050395965576,-7.311000347137451,
1753059264938,,,-0.6360000371932983
1753059264939,6.616950511932373,-7.504950523376465,
1753059264971,6.447000503540039,-7.618050575256348,-0.6649500131607056
1753059265001,,,-0.6340500116348267
1753059265002,6.301050186157227,-7.62000036239624,-0.5290500521659851
1753059265017,6.517050266265869,-7.093950271606445,-1.0939500331878662
1753059265042,6.5809502601623535,-6.7819504737854,-1.051050066947937
1753059265081,7.04295015335083,-6.901950359344482,-0.5740500092506409
1753059265121,6.687000274658203,-7.062000274658203,-0.22905001044273376
1753059265160,,,-0.16500000655651093
1753059265161,7.0410003662109375,-6.538050174713135,-0.06705000251531601
1753059265198,,,0.0019500000635161996
1753059265199,7.515000343322754,-6.880050182342529,0.20295001566410065
1753059265222,,,0.3349500298500061
1753059265223,6.660000324249268,-6.523950099945068,
1753059265252,,,0.14805001020431519
1753059265254,7.089000225067139,-6.9810004234313965,-0.5500500202178955
1753059265255,7.833000183105469,-7.591950416564941,
1753059265284,8.355000495910645,-8.214000701904297,-1.0669500827789307
1753059265318,7.836000442504883,-7.836000442504883,-0.6289500594139099
1753059265334,6.69795036315918,,0.5359500050544739
1753059265335,,-7.0000505447387695,
1753059265357,,-7.375950336456299,0.09495000541210175
1753059265358,7.048050403594971,,
1753059265398,7.3399505615234375,-7.465050220489502,-0.11205000430345535
1753059265413,7.303950309753418,,-0.33900001645088196
1753059265414,,-7.264050483703613,
1753059265437,,,-0.3439500033855438
1753059265438,7.398000240325928,-7.483950138092041,
1753059265477,,,0.32505002617836
1753059265478,7.1610002517700195,-7.27500057220459,1.0740000009536743
1753059265517,6.664950370788574,-5.94195032119751,1.120050072669983
1753059265548,6.576000213623047,-5.367000102996826,0.6720000505447388
1753059265553,6.9810004234313965,-5.650050163269043,0.37995001673698425
1753059265587,7.426050186157227,-6.198000431060791,-0.07095000147819519
1753059265592,7.455000400543213,,-0.15300001204013824
1753059265593,,-6.703050136566162,
1753059265611,7.194000244140625,-7.258950233459473,0.14805001020431519
1753059265631,6.904050350189209,-7.764000415802002,0.4420500099658966
1753059265651,6.748950481414795,-8.110950469970703,0.4330500066280365
1753059265670,6.816000461578369,,0.25095000863075256
1753059265671,,-8.607000350952148,
1753059265694,6.760950088500977,-8.961000442504883,-0.14295001327991486
1753059265721,6.50700044631958,-8.619000434875488,-0.20100000500679016
1753059265740,,,0.15300001204013824
1753059265741,6.526050090789795,-7.579950332641602,
1753059265760,6.883050441741943,-6.909000396728516,0.2050500065088272
1753059265779,7.105050563812256,-6.754050254821777,-0.16200000047683716
1753059265796,7.015050411224365,-6.7920002937316895,-0.7270500063896179
1753059265810,6.832950115203857,-7.0909504890441895,-0.8779500126838684
1753059265830,6.720000267028809,-7.4569501876831055,-0.5410500168800354
1753059265853,,,-0.009000000543892384
1753059265854,6.6820502281188965,-7.503000259399414,
1753059265878,,,-0.04005000367760658
1753059265879,6.615000247955322,-7.897950172424316,
1753059265908,6.402000427246094,-8.346000671386719,-0.8299500346183777
1753059265909,6.1810503005981445,-8.152050018310547,-1.264050006866455
1753059265936,5.998950481414795,-7.510050296783447,-1.4050500392913818
1753059265965,5.785950183868408,-7.258950233459473,-1.812000036239624
1753059265997,5.928000450134277,-7.2900004386901855,-2.302950143814087
1753059266022,6.552000522613525,-7.489050388336182,-2.350950002670288
1753059266028,6.961950302124023,-7.362000465393066,-1.9840500354766846
1753059266048,,,-1.218000054359436
1753059266049,6.87600040435791,-6.511950492858887,
1753059266077,,,-0.7800000309944153
1753059266078,6.433050155639648,-5.169000148773193,
1753059266114,6.415950298309326,,-1.0630500316619873
1753059266115,7.07205057144165,-4.70205020904541,
1753059266127,7.960050582885742,,-1.735050082206726
1753059266130,,-5.652000427246094,
1753059266150,8.499000549316406,-6.438000202178955,-1.5100500583648682
