timestamp,AccX,AccY,AccZ
1753059244703,2.4030001163482666,4.645050048828125,5.971950054168701
1753059244720,3.6090002059936523,2.257050037384033,10.407000541687012
1753059244826,4.165950298309326,,9.616950035095215
1753059244827,1.8690000772476196,2.991000175476074,
1753059244932,2.565000057220459,3.364950180053711,7.413000583648682
1753059245001,1.1440500020980835,,10.086000442504883
1753059245002,,3.1180500984191895,
1753059245068,,,9.070950508117676
1753059245069,2.092050075531006,2.470050096511841,
1753059245137,,,13.627050399780273
1753059245138,2.0940001010894775,0.4909500181674957,
1753059245205,2.3359501361846924,1.9429501295089722,8.050050735473633
1753059245276,0.13199999928474426,2.4240000247955322,8.581050872802734
1753059245343,,,10.419000625610352
1753059245344,0.5389500260353088,1.6489500999450684,
1753059245412,,,8.844000816345215
1753059245413,0.6370500326156616,1.7950501441955566,
1753059245480,,,8.358000755310059
1753059245481,0.08205000311136246,2.296950101852417,
1753059245549,1.807050108909607,2.092050075531006,8.350950241088867
1753059245617,,,9.057000160217285
1753059245618,1.6440000534057617,1.9480501413345337,
1753059245686,2.080049991607666,1.2919501066207886,11.703001022338867
1753059245754,,,11.256000518798828
1753059245756,2.974950075149536,1.7610000371932983,
1753059245824,3.391050100326538,2.206050157546997,9.46095085144043
1753059245893,3.1969501972198486,1.3090500831604004,9.367950439453125
1753059245960,,,8.605050086975098
1753059245961,2.1949501037597656,1.9120501279830933,
1753059246029,,,8.772000312805176
1753059246035,2.4840002059936523,1.8690000772476196,
1753059246099,2.4790501594543457,1.6030501127243042,9.223950386047363
1753059246165,,,10.02405071258545
1753059246166,1.2160500288009644,2.0839500427246094,
1753059246234,,,9.339000701904297
1753059246235,0.41895002126693726,3.421950101852417,
1753059246302,,,9.164999961853027
1753059246304,-0.5400000214576721,3.9250502586364746,
1753059246371,-0.8389500379562378,4.069950103759766,8.925000190734863
1753059246443,-0.39795002341270447,3.979950189590454,10.194000244140625
1753059246509,-1.8679500818252563,4.597050189971924,11.110050201416016
1753059246577,,,11.122050285339355
1753059246578,-0.7090500593185425,2.6539502143859863,
1753059246646,0.33000001311302185,1.4050500392913818,5.551050186157227
1753059246714,1.7569501399993896,0.5670000314712524,1.2850500345230103
1753059246782,,,11.980950355529785
1753059246783,-7.297050476074219,0.36900001764297485,
1753059246850,,,13.527000427246094
1753059246851,-4.051949977874756,1.749000072479248,
1753059246919,-1.1430000066757202,2.284950017929077,6.772050380706787
1753059246988,-0.7669500112533569,1.8550500869750977,7.473000526428223
1753059247056,-2.325000047683716,,11.434950828552246
1753059247057,,1.467000126838684,
1753059247125,,,9.153000831604004
1753059247128,-3.3030002117156982,3.4080002307891846,
1753059247193,-2.683950185775757,2.814000129699707,9.91395092010498
1753059247262,-1.7359501123428345,2.209050178527832,11.158050537109375
1753059247330,,,9.07800006866455
1753059247331,-0.3460500240325928,1.7779500484466553,
1753059247399,-0.5800500512123108,1.9000500440597534,8.60205078125
1753059247468,-1.8600001335144043,3.175950050354004,8.87700080871582
1753059247536,,,9.789000511169434
1753059247537,-1.8199501037597656,3.0510001182556152,
1753059247604,,,9.03795051574707
1753059247605,-1.2430500984191895,3.135000228881836,
1753059247674,-1.4580000638961792,3.324000120162964,9.034950256347656
1753059247742,,,9.43695068359375
1753059247743,-0.43695002794265747,2.9770500659942627,
1753059247810,,,9.265050888061523
1753059247811,-1.4899500608444214,3.2539501190185547,
1753059247879,,,9.291000366210938
1753059247880,-1.702950119972229,3.3000001907348633,
1753059247947,,,12.043050765991211
1753059247951,-1.1809500455856323,2.1940500736236572,
1753059248015,-1.0440000295639038,,8.373000144958496
1753059248016,,1.6990500688552856,
1753059248084,-1.8870000839233398,2.0029501914978027,8.089950561523438
1753059248153,-1.5570000410079956,1.596000075340271,9.604950904846191
1753059248222,-1.9230000972747803,,8.857950210571289
1753059248223,,2.0149500370025635,
1753059248292,-2.1280500888824463,2.6010000705718994,8.607000350952148
1753059248359,-2.499000072479248,,9.418050765991211
1753059248360,,2.8189501762390137,
1753059248427,,,10.28895092010498
1753059248428,-2.4060001373291016,2.48895001411438,
1753059248495,,,10.158000946044922
1753059248496,-2.839050054550171,2.9170501232147217,
1753059248563,,,9.600000381469727
1753059248564,-1.924950122833252,2.836050033569336,
1753059248632,-1.225950002670288,2.350050210952759,10.963950157165527
1753059248701,0.559950053691864,2.439000129699707,8.707950592041016
1753059248769,,,8.039999961853027
1753059248770,0.4050000309944153,2.8120501041412354,
1753059248839,0.1579500138759613,2.9220001697540283,9.757950782775879
1753059248908,0.3379500210285187,3.4150502681732178,8.88900089263916
1753059248976,-0.09405000507831573,4.054049968719482,7.984950542449951
1753059249043,,,9.355950355529785
1753059249044,0.4600500166416168,3.4390501976013184,
1753059249112,-0.9250500202178955,4.354950428009033,8.45205020904541
1753059249181,-0.5160000324249268,3.8839502334594727,8.937000274658203
1753059249249,-1.1620500087738037,,8.854050636291504
1753059249250,,4.120950222015381,
1753059249318,-1.434000015258789,2.7900002002716064,11.46405029296875
1753059249386,-1.225950002670288,3.2190001010894775,9.246000289916992
1753059249455,-1.7050501108169556,2.467050075531006,8.56605052947998
1753059249523,-2.073000192642212,2.149049997329712,8.443950653076172
1753059249592,-2.2390501499176025,2.247000217437744,9.463950157165527
1753059249683,-2.2290000915527344,2.6899502277374268,8.848950386047363
1753059249729,-2.710050106048584,2.9509501457214355,8.983050346374512
1753059249797,,,8.901000022888184
1753059249798,-2.322000026702881,3.2280001640319824,
1753059249866,-2.3959500789642334,3.052950143814087,9.303000450134277
1753059249935,-2.4559500217437744,3.5080502033233643,9.211950302124023
1753059250003,-2.611950159072876,3.5629501342773438,8.893950462341309
1753059250072,-1.336050033569336,2.8759500980377197,8.818050384521484
1753059250140,-1.2960000038146973,2.206050157546997,11.469000816345215
1753059250208,,,7.879950523376465
1753059250209,-0.5710500478744507,3.120000123977661,
1753059250277,-0.3820500075817108,3.7830002307891846,6.628050327301025
1753059250346,-0.2639999985694885,3.259050130844116,9.471000671386719
1753059250414,,,10.222050666809082
1753059250415,-1.3410000801086426,3.4840502738952637,
1753059250483,0.6940500140190125,3.1870501041412354,8.710050582885742
1753059250551,,,9.10200023651123
1753059250552,-1.5250500440597534,4.328999996185303,
1753059250620,-0.4459500312805176,3.4840502738952637,9.05505084991455
1753059250689,-0.10905000567436218,2.9029500484466553,9.370050430297852
1753059250757,-0.3550500273704529,3.132000207901001,9.346050262451172
1753059250826,-0.7050000429153442,3.4840502738952637,9.844050407409668
1753059250894,-1.0180500745773315,3.2860500812530518,9.670050621032715
1753059250963,-1.3960500955581665,3.29295015335083,8.953950881958008
1753059251031,-2.3940000534057617,3.9529502391815186,8.293950080871582
1753059251099,-2.1499500274658203,3.2689502239227295,8.404050827026367
1753059251168,-1.912950038909912,1.9069501161575317,9.045000076293945
1753059251237,-4.15500020980835,2.754000186920166,9.5910005569458
1753059251305,,,7.41795015335083
1753059251306,-2.482950210571289,2.0869500637054443,
1753059251375,-2.2669501304626465,1.1850000619888306,10.81095027923584
1753059251442,-4.291950225830078,2.8720500469207764,10.102950096130371
1753059251511,-2.8969502449035645,3.811950206756592,7.210050106048584
1753059251579,-4.1579999923706055,3.0510001182556152,9.604950904846191
1753059251648,-3.793950080871582,2.754000186920166,8.629050254821777
1753059251717,,,6.975000381469727
1753059251719,-4.452000141143799,3.6540002822875977,
1753059251785,,,8.296050071716309
1753059251786,-5.254050254821777,4.3909502029418945,
1753059251857,,,6.865050315856934
1753059251858,-3.8560502529144287,3.747000217437744,
1753059251924,1.0290000438690186,0.534000039100647,9.564000129699707
1753059251993,-5.884950160980225,0.5890500545501709,6.20205020904541
1753059252061,,,5.632950305938721
1753059252062,-12.439050674438477,,
1753059252065,,1.5889500379562378,
1753059252128,-7.881000518798828,1.7020500898361206,5.319000244140625
1753059252197,-7.102950572967529,1.0870500802993774,7.0249505043029785
1753059252266,,,7.438950538635254
1753059252268,-6.481050491333008,-0.2740500271320343,
1753059252334,,,7.222050189971924
1753059252335,-8.218050003051758,-0.5989500284194946,
1753059252402,-9.834000587463379,-0.7410000562667847,7.972950458526611
1753059252475,-8.617950439453125,-0.8560500144958496,7.44195032119751
1753059252539,,,5.379000186920166
1753059252540,-7.036050319671631,-1.4610000848770142,
1753059252609,-6.349950313568115,-1.0470000505447388,3.7300500869750977
1753059252676,-9.714000701904297,-4.153050422668457,2.098050117492676
1753059252745,-8.95305061340332,-1.6000500917434692,4.993950366973877
1753059252814,-17.047950744628906,,5.025000095367432
1753059252815,,-0.6330000162124634,
1753059252882,,,3.5749502182006836
1753059252883,-8.308950424194336,-0.9180000424385071,
1753059252951,1.503000020980835,-1.7269500494003296,2.1850500106811523
1753059253019,,,-0.6790500283241272
1753059253020,-23.08605194091797,-4.134000301361084,
1753059253090,,,0.7060500383377075
1753059253091,-7.699050426483154,-8.527050018310547,
1753059253156,,,1.1749500036239624
1753059253160,-6.550950527191162,-7.126950263977051,
1753059253225,-6.582000255584717,-11.869950294494629,2.2129499912261963
1753059253293,,,3.063000202178955
1753059253294,-4.4730000495910645,-7.362000465393066,
1753059253362,,,2.55495023727417
1753059253363,-4.873050212860107,-8.08395004272461,
1753059253431,-5.562000274658203,-9.055950164794922,1.5700501203536987
1753059253499,-4.427999973297119,-6.69195032119751,0.27300000190734863
1753059253568,-3.850950241088867,-3.358950138092041,1.5289500951766968
1753059253636,-5.407050132751465,,0.5140500068664551
1753059253637,,-11.035050392150879,
1753059253706,0.48405003547668457,-17.270999908447266,-0.0970500037074089
1753059253773,,,0.46905001997947693
1753059253774,-1.7809500694274902,-12.265050888061523,
1753059253842,-3.4399502277374268,-9.919950485229492,2.6800501346588135
1753059253910,0.283050000667572,,0.9109500646591187
1753059253911,,-11.035050392150879,
1753059253979,,,0.18900001049041748
1753059253980,-1.1860500574111938,-6.027000427246094,
1753059254047,-0.5779500007629395,-10.390950202941895,1.633950114250183
1753059254116,,,1.01895010471344
1753059254117,0.27300000190734863,-8.383950233459473,
1753059254184,-1.5589500665664673,,1.6219500303268433
1753059254185,,-11.205000877380371,
1753059254256,,,1.231950044631958
1753059254257,-0.043950002640485764,-10.080000877380371,
1753059254323,-0.4410000145435333,-9.889050483703613,1.201050043106079
1753059254390,,,1.380000114440918
1753059254391,-1.3480501174926758,-9.53700065612793,
1753059254459,-2.770050048828125,-9.407999992370605,1.7710500955581665
1753059254527,,,1.5840001106262207
1753059254528,-2.937000036239624,-9.337950706481934,
1753059254595,-2.293950080871582,-9.313950538635254,1.1599500179290771
1753059254664,,,0.8089500665664673
1753059254665,-1.2859500646591187,-9.319050788879395,
1753059254734,-1.1380500793457031,-9.907950401306152,0.9930000305175781
1753059254801,,,1.2250500917434692
1753059254803,-0.40095001459121704,-10.044000625610352,
1753059254873,0.5080500245094299,-10.080000877380371,0.8800500631332397
1753059254939,0.51705002784729,-9.86205005645752,0.5070000290870667
1753059255007,-0.6589500308036804,,0.8560500144958496
1753059255008,,-10.219050407409668,
1753059255075,-0.46995002031326294,-9.742950439453125,1.117050051689148
1753059255147,-0.3240000009536743,-9.81705093383789,0.8209500312805176
1753059255212,-0.736050009727478,-10.135050773620605,0.895050048828125
1753059255281,,,0.6910500526428223
1753059255284,-0.2740500271320343,-9.943950653076172,
1753059255350,,,0.1770000010728836
1753059255351,-0.17295001447200775,-9.958050727844238,
1753059255418,0.23205001652240753,-10.497000694274902,0.4069500267505646
1753059255489,-2.4439501762390137,-9.529950141906738,1.9999500513076782
1753059255555,-1.3459500074386597,,2.307000160217285
1753059255556,,-6.522000312805176,
1753059255623,,,1.5000001192092896
1753059255626,-0.21195000410079956,-11.164050102233887,
1753059255692,0.41895002126693726,-9.440999984741211,1.4980500936508179
1753059255761,-2.2860000133514404,-10.324050903320312,0.07605000585317612
1753059255830,1.3950001001358032,-9.846000671386719,1.7560501098632812
1753059255898,,,0.37800002098083496
1753059255900,-1.0440000295639038,-9.904950141906738,
1753059255966,-0.8149500489234924,-9.81195068359375,2.0269501209259033
1753059256034,-2.430000066757202,-9.207000732421875,1.9720500707626343
1753059256105,,,1.0669500827789307
1753059256172,-1.8439500331878662,-9.123000144958496,0.934950053691864
1753059256241,-1.590000033378601,-8.185050010681152,0.13095000386238098
1753059256309,-3.315000057220459,-10.659000396728516,1.2780001163482666
1753059256378,-3.0430500507354736,-9.324000358581543,1.1700000762939453
1753059256446,,,1.4070000648498535
1753059256448,-3.220050096511841,-9.45300006866455,
1753059256514,-2.668950080871582,,1.4280000925064087
1753059256515,,-9.807000160217285,
1753059256583,-2.8510501384735107,-9.559050559997559,1.3210500478744507
1753059256652,,,1.9069501161575317
1753059256655,-5.134050369262695,-8.644050598144531,
1753059256721,,,1.998000144958496
1753059256722,-1.4610000848770142,-8.671050071716309,
1753059256789,-2.4469501972198486,-9.480000495910645,2.196000099182129
1753059256857,,,1.38795006275177
1753059256858,-1.8889501094818115,-10.087050437927246,
1753059256926,,,1.1239500045776367
1753059256927,-1.2220500707626343,-9.40095043182373,
1753059256994,,,1.2660000324249268
1753059256995,-1.2570000886917114,-9.645000457763672,
1753059257063,-2.2699501514434814,,1.1869500875473022
1753059257064,,-9.145050048828125,
1753059257132,-2.8249502182006836,-9.8100004196167,1.6840500831604004
1753059257200,,,1.9930500984191895
1753059257201,-2.6640000343322754,-9.087000846862793,
1753059257268,,,1.4550000429153442
1753059257272,-1.4820001125335693,-9.715950012207031,
1753059257337,-1.3650000095367432,-9.625950813293457,1.3090500831604004
1753059257406,-1.5349500179290771,-9.541950225830078,1.651050090789795
1753059257474,,,1.5619500875473022
1753059257475,-1.5709500312805176,-9.585000038146973,
1753059257542,,,1.5430500507354736
1753059257544,-1.9609501361846924,-9.5149507522583,
1753059257611,-2.0710501670837402,-9.295050621032715,1.6680001020431519
1753059257680,-2.140050172805786,-9.517950057983398,1.8349500894546509
1753059257749,-2.101950168609619,,1.7610000371932983
1753059257750,,-9.45300006866455,
1753059257816,,,1.6770000457763672
1753059257817,-2.241000175476074,-9.463050842285156,
1753059257888,-1.9369500875473022,-9.421950340270996,1.651050090789795
1753059257953,,,1.596000075340271
1753059257955,-1.852950096130371,-9.582000732421875,
1753059258022,,,1.4040000438690186
1753059258023,-1.7500500679016113,-9.45300006866455,
1753059258091,,,1.194000005722046
1753059258092,-1.4440500736236572,-9.802950859069824,
1753059258159,,,1.1910001039505005
1753059258160,-0.7090500593185425,-9.77595043182373,
1753059258228,-1.5829501152038574,-9.594000816345215,1.6440000534057617
1753059258296,,,1.9450501203536987
1753059258297,-2.5069501399993896,-9.328950881958008,
1753059258365,,,2.2990500926971436
1753059258367,-3.198000192642212,-9.037050247192383,
1753059258434,,,2.0650501251220703
1753059258438,-2.8530001640319824,-9.312000274658203,
1753059258504,-2.041949987411499,-9.46500015258789,1.7800500392913818
1753059258571,-1.6810500621795654,,1.612950086593628
1753059258572,,-9.40095043182373,
1753059258640,,,1.426050066947937
1753059258643,-1.50600004196167,-9.778950691223145,
1753059258708,-1.6309500932693481,-9.448050498962402,1.5480000972747803
1753059258776,-1.3530000448226929,-9.5149507522583,1.4040000438690186
1753059258845,-1.924950122833252,-9.622950553894043,1.5700501203536987
1753059258913,,,1.596000075340271
1753059258914,-2.0659501552581787,-9.589950561523438,
1753059258981,,,1.555050015449524
1753059258982,-1.8220500946044922,-9.52500057220459,
1753059259050,-2.0020501613616943,,1.6080000400543213
1753059259051,,-9.40095043182373,
1753059259121,-1.9729501008987427,-9.417000770568848,1.4119501113891602
1753059259190,-1.8439500331878662,,1.4070000648498535
1753059259191,,-9.682950019836426,
1753059259255,,,1.333050012588501
1753059259256,-1.8250501155853271,-9.46500015258789,
1753059259324,-1.6519501209259033,-9.502950668334961,1.4310001134872437
1753059259393,,,1.3300501108169556
1753059259394,-1.4299501180648804,-9.508050918579102,
1753059259461,-2.2890000343322754,,1.6579500436782837
1753059259462,,-9.496050834655762,
1753059259530,-2.431950092315674,-9.283050537109375,1.633950114250183
1753059259599,,,1.4160000085830688
1753059259600,-2.1090002059936523,-9.367050170898438,
1753059259667,-2.5759501457214355,,1.4929500818252563
1753059259671,,-9.484050750732422,
1753059259737,-2.4400501251220703,-9.127950668334961,1.0770000219345093
1753059259804,-1.0800000429153442,-9.733050346374512,0.742050051689148
1753059259873,-1.6519501209259033,,0.8760000467300415
1753059259874,,-9.712050437927246,
1753059259941,-2.40405011177063,-9.922050476074219,0.909000039100647
1753059260010,-2.8530001640319824,-9.403050422668457,0.6550500392913818
1753059260078,,,0.4210500121116638
1753059260079,-2.155050039291382,-9.451050758361816,
1753059260147,-1.9390500783920288,-9.883950233459473,-0.16695000231266022
1753059260215,-1.8769501447677612,-9.697050094604492,-0.08295000344514847
1753059260288,-1.7670000791549683,-9.733050346374512,0.34905001521110535
1753059260353,-1.3270500898361206,-9.460050582885742,0.6550500392913818
1753059260421,-1.699950098991394,-9.340950012207031,1.5480000972747803
1753059260490,,,1.480950117111206
1753059260491,-2.136000156402588,-9.127950668334961,
1753059260558,,,1.735050082206726
1753059260561,-1.924950122833252,-9.369000434875488,
1753059260629,-2.004000186920166,-10.117950439453125,2.1220500469207764
1753059260694,,,2.54295015335083
1753059260695,-2.205000162124634,-10.354950904846191,
1753059260763,-0.6469500064849854,-10.530000686645508,2.464050054550171
1753059260832,,,3.7420501708984375
1753059260833,-1.9369500875473022,-8.154000282287598,
1753059260902,-2.5279500484466553,-9.78600025177002,1.5889500379562378
1753059260970,-1.2499500513076782,-9.292950630187988,3.1440000534057617
1753059261038,,,3.220950126647949
1753059261039,-4.5329999923706055,-7.79295015335083,
1753059261106,,,3.1660501956939697
1753059261107,-3.0019500255584717,-7.327950477600098,
1753059261174,,,3.5629501342773438
1753059261175,-3.741000175476074,-6.87600040435791,
1753059261244,-4.792050361633301,-9.196950912475586,4.671000003814697
1753059261312,,,3.211050033569336
1753059261313,0.2560500204563141,-9.199950218200684,
1753059261381,-2.4280500411987305,-9.448050498962402,0.10005000233650208
1753059261449,-2.9230501651763916,,0.5910000205039978
1753059261453,,-10.330950736999512,
1753059261519,,,0.8880000710487366
1753059261520,-2.3959500789642334,-10.252050399780273,
1753059261587,-4.04295015335083,-8.187000274658203,0.49800002574920654
1753059261654,,,0.8400000333786011
1753059261656,-3.1810500621795654,-9.718950271606445,
1753059261723,-3.3109500408172607,-9.091950416564941,0.6289500594139099
1753059261792,-5.043000221252441,-9.304950714111328,0.6480000019073486
1753059261861,,,1.7130000591278076
1753059261863,-2.0899500846862793,-9.52500057220459,
1753059261928,,,1.4830501079559326
1753059261929,-1.699950098991394,-8.758950233459473,
1753059261997,,,1.609950065612793
1753059261998,-1.9009500741958618,-9.025050163269043,
1753059262066,-2.133000135421753,-8.731050491333008,1.2370500564575195
1753059262136,-3.1050002574920654,-9.80505084991455,3.06000018119812
1753059262204,,,2.2159500122070312
1753059262205,-1.602000117301941,-9.243000030517578,
1753059262272,-1.8919501304626465,-9.562950134277344,3.747000217437744
1753059262340,-1.588050127029419,,3.559950113296509
1753059262341,,-9.592050552368164,
1753059262409,-2.041949987411499,-9.570000648498535,4.285050392150879
1753059262477,-1.111050009727478,-8.25,3.4620001316070557
1753059262547,-2.1310501098632812,-8.860050201416016,3.340050220489502
1753059262613,,,2.68500018119812
1753059262614,-1.4989501237869263,-8.938950538635254,
1753059262683,-1.068000078201294,,2.656050205230713
1753059262687,,-8.737950325012207,
1753059262752,-0.09405000507831573,-9.834000587463379,3.100950241088867
1753059262825,-3.934950113296509,-13.96095085144043,2.137050151824951
1753059262888,,,1.4929500818252563
1753059262889,-3.0019500255584717,-5.4310503005981445,
1753059262957,-4.579050064086914,-8.932050704956055,3.811950206756592
1753059263025,,,1.380000114440918
1753059263027,-1.9609501361846924,-10.03695011138916,
1753059263094,-1.4130001068115234,-9.065999984741211,1.902000069618225
1753059263162,-1.662000060081482,-8.995950698852539,1.9810501337051392
1753059263231,-2.2170000076293945,-9.867000579833984,2.5410001277923584
1753059263301,-2.7529501914978027,-8.994000434875488,2.319000005722046
1753059263373,,,2.425950050354004
1753059263374,-2.124000072479248,-9.52500057220459,
1753059263437,-1.7119500637054443,,1.9309500455856323
1753059263438,,-9.384000778198242,
1753059263505,,,2.239950180053711
1753059263506,-2.1450002193450928,-9.223950386047363,
1753059263573,,,1.8060001134872437
1753059263575,-2.0299501419067383,-9.111000061035156,
1753059263643,-1.8870000839233398,-9.103950500488281,1.9399501085281372
1753059263711,,,1.8570001125335693
1753059263712,-1.831950068473816,-10.65195083618164,
1753059263780,,,2.067000150680542
1753059263781,-2.6550002098083496,-9.255000114440918,
1753059263847,,,1.8690000772476196
1753059263849,-2.518050193786621,-8.725950241088867,
1753059263919,-2.1760501861572266,-9.520050048828125,1.67205011844635
1753059263987,,,1.5700501203536987
1753059263988,-1.831950068473816,-9.586950302124023,
1753059264053,-2.242950201034546,,1.7010000944137573
1753059264054,,-9.361950874328613,
1753059264122,-2.7340500354766846,-9.223950386047363,1.735050082206726
1753059264190,,,1.749000072479248
1753059264191,-1.8409501314163208,-9.40095043182373,
1753059264259,,,1.4830501079559326
1753059264260,-1.5450000762939453,-9.676050186157227,
1753059264328,,,1.6770000457763672
1753059264329,-2.0710501670837402,-9.316950798034668,
1753059264396,-1.588050127029419,-9.77400016784668,1.5889500379562378
1753059264465,,,1.6600500345230103
1753059264468,-1.6879501342773438,-9.436050415039062,
1753059264535,,,1.5360000133514404
1753059264536,-1.9590001106262207,-9.457950592041016,
1753059264601,,,1.596000075340271
1753059264602,-1.7910001277923584,-9.50100040435791,
1753059264671,-2.2240500450134277,-9.553950309753418,1.735050082206726
1753059264739,-2.265000104904175,-9.550950050354004,1.4329500198364258
1753059264807,-2.422950029373169,,1.555050015449524
1753059264808,,-9.19005012512207,
1753059264876,-2.0280001163482666,-9.451050758361816,1.6009501218795776
1753059264944,-1.5799500942230225,-9.697050094604492,1.5889500379562378
1753059265012,,,1.6200001239776611
1753059265013,-1.675950050354004,-9.585000038146973,
1753059265082,-2.0350501537323,-9.259050369262695,1.8229501247406006
1753059265149,,,1.918950080871582
1753059265150,-2.3800501823425293,-9.415050506591797,
1753059265218,,,1.426050066947937
1753059265219,-1.9009500741958618,-9.475050926208496,
1753059265287,-1.3840500116348267,-9.846000671386719,1.1149500608444214
1753059265357,-1.3560000658035278,-9.385950088500977,1.1460000276565552
1753059265424,-2.245950222015381,-9.532050132751465,1.380000114440918
1753059265492,,,1.7539501190185547
1753059265493,-3.378000259399414,-9.042000770568848,
1753059265561,-2.3959500789642334,-9.535050392150879,1.7200500965118408
1753059265629,-2.623950242996216,-9.172950744628906,1.5769500732421875
1753059265698,-2.502000093460083,-9.352950096130371,1.609950065612793
1753059265769,-2.491950035095215,,1.4119501113891602
1753059265770,,-9.397950172424316,
1753059265835,-2.470950126647949,-9.529950141906738,1.2060000896453857
1753059265904,-2.3370001316070557,-9.21405029296875,1.120050072669983
1753059265973,-2.2980000972747803,-9.745050430297852,0.9550500512123108
1753059266042,-2.490000009536743,-9.634950637817383,0.9310500621795654
1753059266110,-2.2890000343322754,-9.247050285339355,0.921000063419342
1753059266178,-2.281949996948242,-9.669000625610352,1.2199500799179077
1753059266247,-2.6520001888275146,-9.313950538635254,1.426050066947937
1753059266318,-2.857950210571289,-9.26400089263916,1.024049997329712
1753059266384,-2.2549500465393066,-9.243000030517578,0.7540500164031982
1753059266452,,,1.1530500650405884
1753059266453,-2.619000196456909,-9.795000076293945,
1753059266521,,,0.9739500284194946
1753059266522,-1.894050121307373,-9.199950218200684,
1753059266589,,,1.171950101852417
1753059266592,-3.138000249862671,,
1753059266593,,-9.015000343322754,
1753059266658,-4.569000244140625,-8.857050895690918,1.7179501056671143
1753059266726,,,1.0740000009536743
1753059266727,-4.000050067901611,-8.950950622558594,
1753059266796,,,0.5959500074386597
1753059266797,-1.815000057220459,-9.444000244140625,
1753059266864,-1.4560500383377075,,0.7609500288963318
1753059266867,,-9.940950393676758,
1753059266935,-2.320050001144409,-9.757050514221191,0.7800000309944153
1753059267003,-2.8369500637054443,-9.48705005645752,1.1460000276565552
1753059267069,-3.8989500999450684,-9.034049987792969,1.3780500888824463
1753059267137,,,0.7560000419616699
1753059267139,-3.1740002632141113,-9.07800006866455,
1753059267206,-1.516050100326538,-9.814950942993164,0.16695000231266022
1753059267275,,,0.8040000200271606
1753059267276,-2.3800501823425293,-9.64905071258545,
1753059267343,-3.6889500617980957,-8.94105052947998,1.3300501108169556
1753059267411,,,1.231950044631958
1753059267413,-3.069000244140625,-9.283050537109375,
1753059267482,-2.230950117111206,-9.556050300598145,0.5140500068664551
1753059267550,-2.203050136566162,,0.6960000395774841
1753059267618,,,1.2679500579833984
1753059267619,-2.5069501399993896,-9.19005012512207,
1753059267686,-2.763000249862671,-9.505950927734375,1.5000001192092896
1753059267754,,,1.64805006980896
1753059267755,-3.3540000915527344,-8.914950370788574,
1753059267823,,,1.5070500373840332
1753059267824,-3.0930001735687256,-9.340950012207031,
1753059267892,-2.4750001430511475,-9.364950180053711,0.8350500464439392
1753059267960,-2.7430500984191895,,0.922950029373169
1753059267962,,-9.379050254821777,
1753059268028,,,1.117050051689148
1753059268029,-3.1600501537323,-9.346050262451172,
1753059268103,-2.968050241470337,,1.0380001068115234
1753059268104,,-9.163949966430664,
1753059268168,-2.947050094604492,-9.358050346374512,1.3180500268936157
1753059268234,,,1.0810500383377075
1753059268236,-2.947050094604492,-9.343050003051758,
1753059268303,-2.5350000858306885,-9.300000190734863,0.7099500298500061
1753059268371,-2.053950071334839,-9.565950393676758,0.8250000476837158
1753059268440,-1.9489500522613525,-9.609000205993652,0.8440500497817993
1753059268509,-1.8750001192092896,-9.621000289916992,1.0000500679016113
1753059268577,-2.6140501499176025,-9.279000282287598,1.2610501050949097
1753059268646,-3.318000078201294,-9.157050132751465,1.3540500402450562
1753059268715,,,1.0669500827789307
1753059268717,-3.5590500831604004,-9.106050491333008,
1753059268783,-3.5190000534057617,,0.7750500440597534
1753059268784,,-9.199950218200684,
1753059268851,-2.986950159072876,-9.267000198364258,0.49500003457069397
1753059268919,,,0.43095001578330994
1753059268920,-2.7340500354766846,-9.316950798034668,
1753059268988,,,0.4140000343322754
1753059268989,-2.2390501499176025,-9.693000793457031,
1753059269057,-2.6479501724243164,-9.550950050354004,0.5550000071525574
1753059269125,,,0.33000001311302185
1753059269126,-3.0640501976013184,-9.664050102233887,
1753059269194,,,0.2939999997615814
1753059269195,-3.5689501762390137,-8.986950874328613,
1753059269262,-3.9760501384735107,-9.256950378417969,0.5719500184059143
1753059269334,-2.710050106048584,-9.457950592041016,0.41100001335144043
1753059269399,-2.362950086593628,-9.255000114440918,0.46605002880096436
1753059269469,-3.0259501934051514,-9.26205062866211,0.26805001497268677
1753059269536,,,0.531000018119812
1753059269537,-2.3989500999450684,-9.640050888061523,
1753059269605,-0.906000018119812,-10.90095043182373,0.39900001883506775
1753059269673,,,1.0260000228881836
1753059269674,0.6390000581741333,-11.277000427246094,
1753059269742,,,1.1989500522613525
1753059269743,0.17295001447200775,-9.075000762939453,
1753059269811,-0.7309500575065613,-8.625,2.247000217437744
1753059269879,,,4.384050369262695
1753059269883,-2.430000066757202,-8.557950019836426,
1753059269961,0.3660000264644623,-9.136950492858887,2.5480501651763916
1753059270016,0.7849500179290771,-8.142000198364258,2.3299500942230225
1753059270085,,,2.7490501403808594
1753059270086,-0.8479500412940979,-9.492000579833984,
1753059270153,0.2350500077009201,,3.5250000953674316
1753059270154,,-10.954050064086914,
1753059270222,-1.6330500841140747,-10.261950492858887,1.5120000839233398
1753059270291,-4.603050231933594,-10.35300064086914,3.3640501499176025
1753059270359,-1.963050127029419,-8.37405014038086,2.0820000171661377
1753059270427,-4.600050449371338,-8.565000534057617,1.4449501037597656
1753059270496,-2.8129501342773438,-8.55405044555664,0.10695000737905502
1753059270566,-4.190999984741211,-8.994000434875488,0.32295000553131104
1753059270634,-2.281949996948242,-9.883950233459473,0.45705002546310425
1753059270701,,,1.4550000429153442
1753059270704,-3.3799500465393066,-9.235050201416016,
1753059270770,,,0.6240000128746033
1753059270771,-2.4970500469207764,-9.25200080871582,
1753059270838,,,0.2179500162601471
1753059270839,-1.3459500074386597,-9.879000663757324,
1753059270907,-2.155050039291382,-9.669000625610352,0.7060500383377075
1753059270975,,,0.7080000042915344
1753059270976,-2.2480502128601074,-9.469950675964355,
1753059271044,-2.3989500999450684,-9.706950187683105,0.7890000343322754
1753059271117,-2.2860000133514404,-9.393000602722168,0.9670500755310059
1753059271181,-2.511000156402588,,1.1599500179290771
1753059271182,,-9.589950561523438,
1753059271249,,,0.9709500670433044
1753059271250,-2.551950216293335,-9.243000030517578,
1753059271318,,,1.01895010471344
1753059271319,-2.473050117492676,-9.481950759887695,
1753059271387,-2.0299501419067383,-9.53700065612793,0.8800500631332397
1753059271456,-2.0089499950408936,-9.565950393676758,0.7849500179290771
1753059271524,,,0.9739500284194946
1753059271525,-2.31000018119812,-9.407999992370605,
1753059271592,,,1.0909500122070312
1753059271593,-2.3650500774383545,-9.613950729370117,
1753059271661,,,1.1050500869750977
1753059271662,-2.2789502143859863,-9.646950721740723,
1753059271729,,,0.9810000658035278
1753059271730,-2.344050168991089,-9.313950538635254,
1753059271798,,,0.9450000524520874
1753059271799,-1.8750001192092896,-9.532050132751465,
1753059271866,-1.9780501127243042,-9.385950088500977,1.2060000896453857
1753059271935,-2.3560500144958496,,1.2060000896453857
1753059271936,,-9.532050132751465,
1753059272003,,,1.5000001192092896
1753059272004,-2.4439501762390137,-9.276000022888184,
1753059272072,,,1.495050072669983
1753059272073,-2.3610000610351562,-9.421950340270996,
1753059272141,-1.870050072669983,-9.355050086975098,1.3780500888824463
1753059272209,,,1.6009501218795776
1753059272210,-2.6449501514434814,-9.440999984741211,
1753059272277,,,1.3159500360488892
1753059272278,-2.8750500679016113,-9.079950332641602,
1753059272349,-2.6290500164031982,-9.298050880432129,1.3570500612258911
1753059272415,,,1.1680500507354736
1753059272416,-1.6189501285552979,-9.670950889587402,
1753059272484,-1.5540000200271606,-9.508050918579102,1.2510000467300415
1753059272552,-2.4439501762390137,-9.481950759887695,1.633950114250183
1753059272621,,,1.8259501457214355
1753059272622,-3.745950222015381,-8.97195053100586,
1753059272688,-3.157050132751465,-9.26400089263916,1.8499500751495361
1753059272758,,,1.270050048828125
1753059272759,-2.26200008392334,-9.286050796508789,
1753059272826,,,1.1320500373840332
1753059272827,-1.8480000495910645,-9.565950393676758,
1753059272894,,,1.2030000686645508
1753059272899,-1.8840000629425049,-9.562950134277344,
1753059272965,-1.746000051498413,-9.733050346374512,0.9780000448226929
1753059273032,-2.559000015258789,-9.46500015258789,1.171950101852417
1753059273100,-2.820000171661377,-9.172950744628906,1.4280000925064087
1753059273169,,,1.4620500802993774
1753059273170,-2.136000156402588,-9.493950843811035,
1753059273238,-2.101950168609619,-9.45300006866455,1.3920000791549683
1753059273306,-2.533050060272217,-9.420000076293945,1.555050015449524
1753059273375,,,1.4470500946044922
1753059273376,-2.857950210571289,-9.288000106811523,
1753059273442,,,1.1650500297546387
1753059273443,-2.1790502071380615,-9.562950134277344,
1753059273513,-1.9470001459121704,-9.433950424194336,1.1290500164031982
1753059273584,-2.3610000610351562,-9.610950469970703,1.2559500932693481
1753059273648,,,1.3830000162124634
1753059273649,-2.3530499935150146,-9.25200080871582,
1753059273718,,,1.290000081062317
1753059273720,-2.39205002784729,,
1753059273721,,-9.53700065612793,
1753059273785,-2.230950117111206,,1.3039500713348389
1753059273786,,-9.448050498962402,
1753059273854,-2.3680500984191895,-9.405000686645508,1.4020500183105469
1753059273922,-2.200050115585327,-9.349950790405273,1.3039500713348389
1753059273991,,,1.1560500860214233
1753059273993,-2.0880000591278076,-9.592050552368164,
1753059274059,,,1.0860000848770142
1753059274060,-2.0590500831604004,-9.484050750732422,
1753059274133,-2.659950017929077,-9.322050094604492,1.456950068473816
1753059274198,-2.8129501342773438,-9.288000106811523,1.4590500593185425
1753059274265,,,1.3450500965118408
1753059274267,-2.2980000972747803,-9.328950881958008,
1753059274334,-2.5039501190185547,,1.5000001192092896
1753059274335,,-9.372000694274902,
1753059274402,-2.514000177383423,,1.3999500274658203
1753059274403,,-9.396000862121582,
1753059274471,-2.4079501628875732,-9.589950561523438,1.2199500799179077
1753059274539,,,1.1790000200271606
1753059274540,-2.490000009536743,-9.505950927734375,
1753059274609,-2.514000177383423,-9.325950622558594,1.1149500608444214
1753059274677,,,1.1149500608444214
1753059274681,-2.5540502071380615,-9.53700065612793,
1753059274747,,,1.1599500179290771
1753059274748,-2.785950183868408,-9.38895034790039,
1753059274814,,,0.9880500435829163
1753059274818,-2.1670501232147217,-9.51300048828125,
1753059274883,-2.6170501708984375,,1.2580500841140747
1753059274884,,-9.316950798034668,
1753059274951,-2.7150001525878906,-9.469950675964355,1.4239500761032104
1753059275019,-2.499000072479248,-9.319050788879395,1.4119501113891602
1753059275088,,,1.2750000953674316
1753059275089,-2.3770501613616943,-9.364950180053711,
1753059275156,-2.7460501194000244,-9.544050216674805,1.3590000867843628
1753059275226,-2.6550002098083496,-8.938950538635254,1.3300501108169556
1753059275293,,,1.1149500608444214
1753059275294,-2.0929501056671143,-9.790950775146484,
1753059275367,-2.01104998588562,-9.384000778198242,1.1890500783920288
1753059275431,,,1.3039500713348389
1753059275432,-2.9539501667022705,-9.21405029296875,
1753059275500,-2.77905011177063,-9.319050788879395,1.2460500001907349
1753059275568,-2.4660000801086426,,1.2850500345230103
1753059275569,,-9.463050842285156,
1753059275636,,,1.3950001001358032
1753059275637,-2.551950216293335,-9.295050621032715,
1753059275705,-2.6170501708984375,-9.41295051574707,1.384950041770935
1753059275774,-3.0040502548217773,-9.231000900268555,1.3230000734329224
1753059275842,,,1.2630000114440918
1753059275843,-2.8849501609802246,-9.397950172424316,
1753059275914,-2.1790502071380615,-9.556050300598145,0.7080000042915344
1753059275982,-2.026050090789795,-9.53700065612793,0.6990000605583191
1753059276047,,,1.1080501079559326
1753059276048,-2.892000198364258,-9.373950004577637,
1753059276116,-3.14805006980896,,1.0960500240325928
1753059276117,,-9.085050582885742,
1753059276184,,,0.9880500435829163
1753059276185,-3.5350501537323,-9.054000854492188,
1753059276253,-3.2220001220703125,-8.958000183105469,0.7459500432014465
1753059276322,-2.650050163269043,-9.838050842285156,0.3540000021457672
1753059276391,,,0.6600000262260437
1753059276393,-2.620950222015381,-9.065999984741211,
1753059276458,,,0.8280000686645508
1753059276460,-2.7649500370025635,-9.57300090789795,
1753059276531,-3.1879501342773438,-9.606000900268555,0.4830000102519989
1753059276597,-3.865950107574463,-9.207000732421875,0.37800002098083496
1753059276664,,,0.5860500335693359
1753059276665,-3.5400002002716064,-9.475050926208496,
1753059276733,-1.8250501155853271,,1.4020500183105469
1753059276735,,-9.304950714111328,
1753059276802,-1.4029500484466553,-9.53700065612793,0.853950023651123
1753059276870,-1.3650000095367432,-9.47700023651123,1.194000005722046
1753059276938,,,1.4470500946044922
1753059276939,-1.9230000972747803,-9.529950141906738,
1753059277007,-3.454050064086914,-9.276000022888184,2.1319501399993896
1753059277076,-2.7360000610351562,-9.50100040435791,1.1149500608444214
1753059277146,,,1.3780500888824463
1753059277147,-2.25,-9.415050506591797,
1753059277214,-1.8889501094818115,-9.316950798034668,1.5889500379562378
1753059277281,-3.136050224304199,-8.713950157165527,1.549950122833252
1753059277350,-2.341050148010254,,1.5460500717163086
1753059277351,,-9.40095043182373,
1753059277418,-2.2170000076293945,-9.988950729370117,1.593000054359436
1753059277487,-2.9250001907348633,-8.89995002746582,1.5859500169754028
1753059277555,,,1.5340501070022583
1753059277556,-2.7750000953674316,-9.324000358581543,
1753059277623,,,1.5460500717163086
1753059277624,-2.91795015335083,-9.067950248718262,
1753059277692,-3.117000102996826,-9.25200080871582,1.6030501127243042
1753059277762,-3.4210500717163086,-9.22605037689209,1.5700501203536987
1753059277829,,,1.4760000705718994
1753059277832,-3.4729502201080322,-9.075000762939453,
1753059277898,,,1.3399500846862793
1753059277899,-2.86995005607605,-9.300000190734863,
1753059277966,-2.233950138092041,-9.52695083618164,1.384950041770935
1753059278035,-2.056950092315674,-9.358050346374512,1.171950101852417
1753059278103,,,1.120050072669983
1753059278104,-2.581050157546997,,
1753059278105,,-9.40095043182373,
1753059278172,-2.7360000610351562,-9.20895004272461,1.3590000867843628
1753059278241,-2.578050136566162,-9.45300006866455,1.158000111579895
1753059278315,-2.809950113296509,-9.304950714111328,0.9810000658035278
1753059278378,,,0.9469500184059143
1753059278379,-2.449050188064575,,
1753059278380,,-9.493950843811035,
1753059278447,-2.668950080871582,-9.070050239562988,1.065000057220459
1753059278515,-2.671950101852417,-9.439050674438477,0.9400500655174255
1753059278583,,,0.7129500508308411
1753059278584,-3.424950122833252,-9.420000076293945,
1753059278652,-4.024050235748291,-9.157050132751465,0.45900002121925354
1753059278720,,,0.7770000100135803
1753059278721,-3.05400013923645,-8.845050811767578,
1753059278788,-3.0640501976013184,-8.9839506149292,0.8110500574111938
1753059278857,,,1.8450000286102295
1753059278858,-2.739000082015991,-9.922050476074219,
1753059278929,-2.67900013923645,,2.8999500274658203
1753059278930,,-9.609000205993652,
1753059278996,-3.1740002632141113,,3.4050002098083496
1753059279063,,,1.540950059890747
1753059279064,-1.5090000629425049,-10.138050079345703,
1753059279132,-1.746000051498413,-9.640050888061523,2.3329501152038574
1753059279200,-3.3820502758026123,-7.606050491333008,1.327950119972229
1753059279269,-4.342050075531006,-8.797950744628906,2.902050256729126
1753059279337,-4.085999965667725,-9.304950714111328,2.5360500812530518
1753059279406,,,2.1439499855041504
1753059279408,-5.301000118255615,-7.25700044631958,
1753059279474,,,3.3949501514434814
1753059279476,-2.9059500694274902,-7.942950248718262,
1753059279546,-5.086050033569336,-7.729950428009033,2.115000009536743
1753059279612,-3.117000102996826,,2.9359500408172607
1753059279613,,-9.112950325012207,
1753059279680,-3.68595027923584,,1.67205011844635
1753059279681,,-7.998000144958496,
1753059279748,,,0.5070000290870667
1753059279752,-3.126000165939331,-10.032000541687012,
1753059279816,,,0.5790000557899475
1753059279817,-1.9920001029968262,-8.950950622558594,
1753059279885,-4.264950275421143,-9.271050453186035,0.364050030708313
1753059279953,-3.970950126647949,-9.051000595092773,0.31095001101493835
1753059280023,-2.9610002040863037,-9.850050926208496,0.7939500212669373
1753059280091,-4.102950096130371,-8.719050407409668,0.7969500422477722
1753059280160,-5.775000095367432,-8.290050506591797,0.9280500411987305
1753059280229,-1.2600001096725464,-8.628000259399414,2.971950054168701
1753059280296,,,4.707000255584717
1753059280299,-3.8299500942230225,-10.89900016784668,
1753059280365,-4.087950229644775,-8.032050132751465,3.268050193786621
1753059280433,-5.211000442504883,,2.9599502086639404
1753059280434,,-6.9649505615234375,
1753059280502,-3.4039502143859863,-8.556000709533691,2.694000244140625
1753059280571,,,3.582000255584717
1753059280573,-2.6620500087738037,-9.082050323486328,
1753059280639,-4.605000019073486,-8.161050796508789,3.123000144958496
1753059280708,,,2.656050205230713
1753059280713,-3.6529502868652344,-8.472000122070312,
1753059280779,-2.4630000591278076,-8.731050491333008,3.2400002479553223
1753059280845,,,3.2950501441955566
1753059280846,-4.642950057983398,-8.110950469970703,
1753059280913,-3.3919501304626465,-9.039000511169434,3.6610500812530518
1753059280981,,,3.967050075531006
1753059280982,-4.342050075531006,-7.660950183868408,
1753059281051,-4.468950271606445,,3.3949501514434814
1753059281052,,-7.3470001220703125,
1753059281119,-4.549950122833252,-8.488950729370117,3.4170000553131104
1753059281188,,,3.6060001850128174
1753059281189,-1.015950083732605,-10.599000930786133,
1753059281257,-2.3490002155303955,-9.022950172424316,0.025950001552700996
1753059281325,-6.262950420379639,-9.613950729370117,1.141050100326538
1753059281393,-3.0979502201080322,-8.404950141906738,0.42600002884864807
1753059281462,-3.1240501403808594,-9.22605037689209,0.9160500168800354
1753059281530,-4.485000133514404,-8.886000633239746,1.1770501136779785
1753059281599,,,0.9640500545501709
1753059281601,-5.48805046081543,-8.422050476074219,
1753059281667,,,0.4830000102519989
1753059281668,-4.423050403594971,-8.806950569152832,
1753059281736,-3.5809502601623535,-8.63700008392334,-0.3730500042438507
1753059281805,-3.643050193786621,-8.57295036315918,0.37095001339912415
1753059281873,1.8090001344680786,-17.42595100402832,0.51705002784729
1753059281945,-0.6520500183105469,-8.601000785827637,1.9140000343322754
1753059282011,0.325950026512146,-9.81705093383789,1.540950059890747
1753059282078,-1.297950029373169,,2.8980002403259277
1753059282079,,-8.308950424194336,
1753059282148,-1.3270500898361206,-9.013050079345703,2.814000129699707
1753059282215,,,2.206050157546997
1753059282217,0.04305000230669975,-9.247050285339355,
1753059282284,0.034050002694129944,-11.170950889587402,2.932950258255005
1753059282353,-1.5970500707626343,-8.508000373840332,2.227950096130371
1753059282421,,,3.2059502601623535
1753059282422,-1.228950023651123,-9.468000411987305,
1753059282490,,,2.5219500064849854
1753059282491,-2.800950050354004,-7.909950256347656,
1753059282561,-3.753000259399414,-8.044050216674805,3.6559500694274902
1753059282627,-2.785950183868408,-8.601000785827637,4.276050090789795
1753059282694,-3.1240501403808594,-10.699950218200684,3.7330501079559326
1753059282763,-2.8150501251220703,-8.605950355529785,2.3449501991271973
1753059282832,,,2.7490501403808594
1753059282833,-1.5780000686645508,-8.814000129699707,
1753059282901,-0.6379500031471252,-9.322050094604492,1.9210500717163086
1753059282969,-0.46095001697540283,,2.5390501022338867
1753059282970,,-9.480000495910645,
1753059283038,,,2.2080001831054688
1753059283039,-0.8149500489234924,-7.948050498962402,
1753059283106,-3.061950206756592,-9.850050926208496,2.2039501667022705
1753059283178,-1.1209501028060913,-9.109050750732422,0.4330500066280365
1753059283243,,,0.8160000443458557
1753059283244,-4.3660502433776855,-12.00195026397705,
1753059283312,-1.8799500465393066,-7.5319504737854,-1.546950101852417
1753059283381,-4.729950428009033,-12.655050277709961,0.8779500126838684
1753059283449,,,0.09105000644922256
1753059283450,-2.095050096511841,-5.557950496673584,
1753059283517,,,1.2780001163482666
1753059283519,-5.914050102233887,-11.407950401306152,
1753059283587,-3.8800501823425293,,1.0930500030517578
1753059283588,,-8.254050254821777,
1753059283655,-3.765000104904175,-8.896050453186035,0.8419500589370728
1753059283723,-4.105050086975098,-9.56100082397461,0.7770000100135803
1753059283794,-3.028050184249878,-9.283050537109375,-0.08295000344514847
1753059283860,,,0.28905001282691956
1753059283861,-3.136050224304199,,
1753059283862,,-9.50100040435791,
1753059283929,-2.7910501956939697,-9.606000900268555,0.700950026512146
1753059283997,,,1.065000057220459
1753059283998,-2.641050100326538,-8.728050231933594,
1753059284066,,,0.700950026512146
1753059284068,-3.2749502658843994,-9.877050399780273,
1753059284134,,,0.8160000443458557
1753059284136,-2.9160001277923584,-8.794950485229492,
1753059284203,,,1.2610501050949097
1753059284204,-3.2910001277923584,-9.45300006866455,
1753059284272,-3.046950101852417,-8.970000267028809,1.3420500755310059
1753059284345,-3.0900001525878906,-9.171000480651855,1.0549499988555908
1753059284409,-2.86995005607605,-9.199950218200684,1.0410000085830688
1753059284478,-2.860950231552124,,1.120050072669983
1753059284479,,-9.310050010681152,
1753059284546,-3.3799500465393066,-9.271050453186035,1.3729500770568848
1753059284615,,,1.3489500284194946
1753059284616,-3.544950246810913,-9.034049987792969,
1753059284683,-3.327000141143799,,1.1560500860214233
1753059284685,,-8.93595027923584,
1753059284751,,,1.120050072669983
1753059284752,-3.5350501537323,-9.103950500488281,
1753059284820,-3.5239500999450684,-9.322050094604492,0.7770000100135803
1753059284888,-3.4210500717163086,-9.063000679016113,0.6480000019073486
1753059284957,,,0.14805001020431519
1753059284958,-3.2029502391815186,-9.417000770568848,
1753059285027,-2.574000120162964,-9.709050178527832,0.14595000445842743
1753059285094,-2.7649500370025635,-9.397950172424316,0.5910000205039978
1753059285162,-3.186000108718872,-8.809950828552246,1.2130500078201294
1753059285231,,,1.3450500965118408
1753059285233,-3.1429500579833984,-8.805000305175781,
1753059285299,-3.0949501991271973,-9.565950393676758,1.1790000200271606
1753059285368,,,3.3379502296447754
1753059285369,-2.0899500846862793,-8.93595027923584,
1753059285437,-4.749000072479248,-10.510950088500977,3.8929502964019775
1753059285505,,,5.569950103759766
1753059285506,-7.776000499725342,-7.630050182342529,
1753059285574,-5.172000408172607,-4.736999988555908,3.4650001525878906
1753059285641,,,3.172950267791748
1753059285642,-4.513950347900391,-6.309000492095947,
1753059285711,-2.02305006980896,-9.276000022888184,1.440000057220459
1753059285779,,,1.7899501323699951
1753059285781,0.6460500359535217,-9.24000072479248,
1753059285848,-4.606950283050537,-12.901050567626953,2.8279502391815186
1753059285916,-8.0149507522583,-9.427050590515137,3.3640501499176025
1753059285984,,,2.4979500770568848
1753059285985,-1.8840000629425049,-4.087950229644775,
1753059286053,,,2.584050178527832
1753059286054,-6.766050338745117,-11.71500015258789,
1753059286122,,,2.9670002460479736
1753059286123,-2.680950164794922,-8.367000579833984,
1753059286193,,,0.33195000886917114
1753059286194,-3.8800501823425293,-8.592000007629395,
1753059286259,,,0.9040500521659851
1753059286260,-3.703050136566162,-8.688000679016113,
1753059286327,-4.299000263214111,,1.2460500001907349
1753059286329,,-9.148950576782227,
1753059286396,,,0.8490000367164612
1753059286397,-3.982950210571289,-8.97195053100586,
1753059286465,-4.135950088500977,-8.881050109863281,1.5979501008987427
1753059286534,-6.1870503425598145,-8.383950233459473,1.7130000591278076
1753059286602,,,1.0410000085830688
1753059286603,-5.533950328826904,-8.199000358581543,
1753059286671,-4.567049980163574,-8.395950317382812,0.036000002175569534
1753059286744,-4.450050354003906,-8.26200008392334,-1.071000099182129
1753059286812,-5.3110504150390625,-8.142000198364258,-0.9970500469207764
1753059286876,-5.469000339508057,-9.061050415039062,0.3130500018596649
1753059286944,,,0.7870500087738037
1753059286945,-4.420950412750244,-8.509950637817383,
1753059287013,2.5609500408172607,-18.147001266479492,0.361050009727478
1753059287081,,,1.593000054359436
1753059287082,-5.3520002365112305,-4.9930500984191895,
1753059287151,-6.724950313568115,,2.4049501419067383
1753059287152,,-8.395950317382812,
1753059287219,-1.0369499921798706,-8.521950721740723,-0.13305000960826874
1753059287287,-4.039950370788574,-5.151000022888184,1.6009501218795776
1753059287360,-0.5590500235557556,-7.165950298309326,2.4019501209259033
1753059287426,-7.008000373840332,-9.243000030517578,7.884000301361084
1753059287493,-11.190000534057617,-4.81095027923584,2.1940500736236572
1753059287561,-4.3660502433776855,-27.30405044555664,6.565950393676758
1753059287630,,,-2.517000198364258
1753059287631,5.089950084686279,-0.20205001533031464,
1753059287698,,,0.028050001710653305
1753059287700,-9.943950653076172,-14.871000289916992,
1753059287767,0.4020000100135803,-4.300950050354004,1.333050012588501
1753059287836,-6.31095027923584,-8.659049987792969,0.1789500117301941
1753059287904,,,-0.6190500259399414
1753059287905,-2.9230501651763916,-5.176950454711914,
1753059287974,-7.009950160980225,-12.15195083618164,0.9139500260353088
1753059288042,-7.134000301361084,-6.744000434875488,-0.4230000078678131
1753059288110,0.0580500029027462,-14.82300090789795,-2.9740500450134277
1753059288178,,,2.007000207901001
1753059288179,-0.5560500025749207,-17.488950729370117,
1753059288246,,,2.6269500255584717
1753059288247,-8.632050514221191,-2.373000144958496,
1753059288316,-2.4780001640319824,,0.9070500135421753
1753059288317,,-4.8949503898620605,
1753059288384,0.9529500603675842,,-0.8629500269889832
1753059288385,,-1.9180500507354736,
1753059288453,-4.123950004577637,-8.034000396728516,8.053950309753418
1753059288521,-15.634050369262695,,3.421950101852417
1753059288522,,-6.9120001792907715,
1753059288589,-1.951050043106079,-24.12900161743164,-2.0689501762390137
1753059288659,2.4120001792907715,-2.4060001373291016,-1.8850500583648682
1753059288729,-4.72005033493042,-11.461050987243652,-0.286050021648407
1753059288795,,,1.2580500841140747
1753059288798,1.0339500904083252,-6.13200044631958,
1753059288863,,,0.598050057888031
1753059288864,-8.994000434875488,-5.920950412750244,
1753059288932,-5.548050403594971,-5.586000442504883,-0.9439500570297241
1753059289001,-3.664950132369995,,1.1509500741958618
1753059289002,,-11.61405086517334,
1753059289068,,,1.3540500402450562
1753059289069,-6.610050201416016,-9.337950706481934,
1753059289137,-0.778950035572052,-22.14000129699707,-4.657950401306152
1753059289206,-2.061000108718872,-8.410050392150879,1.5529500246047974
1753059289274,-6.091050148010254,-2.968050241470337,2.8780500888824463
1753059289342,,,-2.1670501232147217
1753059289343,-0.7380000352859497,-4.3969502449035645,
1753059289412,0.5580000281333923,-1.3530000448226929,1.201050043106079
1753059289480,-19.266000747680664,-18.04905128479004,2.527050018310547
1753059289548,-7.417050361633301,,-0.23100000619888306
1753059289549,,2.7739500999450684,
1753059289617,-6.673050403594971,-29.182950973510742,0.13905000686645508
1753059289685,-5.092950344085693,-5.6509504318237305,-1.8870000839233398
1753059289754,-1.2310500144958496,-11.491950988769531,-0.9300000667572021
1753059289823,-0.8629500269889832,-4.82295036315918,-1.3750500679016113
1753059289891,-9.20205020904541,,1.171950101852417
1753059289892,,-7.053000450134277,
1753059289959,,,-0.0019500000635161996
1753059289960,-6.936000347137451,-3.828000068664551,
1753059290028,-3.2149500846862793,-10.237950325012207,-1.8540000915527344
1753059290096,,,-2.39205002784729
1753059290097,-2.4060001373291016,-10.834050178527832,
1753059290165,1.6920000314712524,-20.06100082397461,-0.7720500230789185
1753059290234,-10.408050537109375,-2.5350000858306885,0.8400000333786011
1753059290302,-7.417050361633301,-2.3869500160217285,1.366050124168396
1753059290371,2.281050205230713,-2.313000202178955,-1.6549500226974487
1753059290439,,,8.344050407409668
1753059290440,-0.6520500183105469,,
1753059290508,-20.749950408935547,-15.208050727844238,4.884000301361084
1753059290576,,,2.407050132751465
1753059290577,2.5920000076293945,-19.384050369262695,
1753059290645,0.9240000247955322,-4.264950275421143,-2.7799501419067383
1753059290713,,,-2.5600500106811523
1753059290714,-10.33905029296875,-7.387950420379639,
1753059290783,2.0530500411987305,,-0.3630000054836273
1753059290784,,-5.881050109863281,
1753059290868,,,0.45705002546310425
1753059290869,-10.633050918579102,-6.948000431060791,
1753059290885,-11.616000175476074,-7.33305025100708,2.577000141143799
1753059290902,,,0.8230500221252441
1753059290903,-8.754000663757324,-7.91895055770874,
1753059290919,,,-2.521050214767456
1753059290920,-6.9210004806518555,-6.598050117492676,
1753059290936,,,-1.665000081062317
1753059290939,-8.266050338745117,-5.878050327301025,
1753059290953,,,0.9640500545501709
1753059290958,-8.455050468444824,-8.233050346374512,
1753059290972,-6.121950149536133,-11.116050720214844,0.7489500641822815
1753059290987,,,-0.07800000160932541
1753059290988,-3.7360501289367676,-11.56605052947998,
1753059291006,-3.2790000438690186,-10.954050064086914,0.26805001497268677
1753059291025,-3.4519500732421875,-11.164050102233887,-0.4990500211715698
1753059291041,-5.494950294494629,-10.425000190734863,-1.324950098991394
1753059291057,-6.4930500984191895,-9.934050559997559,-0.17400000989437103
1753059291073,,,0.7540500164031982
1753059291074,-6.064950466156006,-9.367050170898438,
1753059291091,-4.150050163269043,-8.404950141906738,1.2510000467300415
1753059291108,0.13905000686645508,-10.381950378417969,-0.41100001335144043
1753059291125,1.5100500583648682,-15.268051147460938,-2.353950023651123
1753059291142,0.9360000491142273,-19.82400131225586,-3.5239500999450684
1753059291159,,,-1.2390000820159912
1753059291160,3.3379502296447754,,
1753059291161,,-22.67595100402832,
1753059291176,,,2.139000177383423
1753059291177,2.914950132369995,-19.365001678466797,
1753059291193,,,2.4210000038146973
1753059291194,-3.8200502395629883,-11.341050148010254,
1753059291210,,,2.3449501991271973
1753059291211,-8.290050506591797,-7.16295051574707,
1753059291228,-6.913950443267822,-6.328050136566162,2.4019501209259033
1753059291245,-7.857000350952148,-2.9160001277923584,2.6130001544952393
1753059291262,-9.22800064086914,0.14595000445842743,0.9109500646591187
1753059291279,,,0.18195000290870667
1753059291280,-9.8860502243042,1.5460500717163086,
1753059291296,-9.010050773620605,-0.9630000591278076,1.612950086593628
1753059291313,,,1.5460500717163086
1753059291314,-4.669950008392334,-4.701000213623047,
1753059291330,,,1.6150500774383545
1753059291331,-2.0350501537323,-6.472050189971924,
1753059291348,-1.4560500383377075,-7.479000568389893,1.5529500246047974
1753059291365,-1.4610000848770142,-6.256050109863281,2.176950216293335
1753059291382,-1.7790000438690186,-3.1909501552581787,-3.7849502563476562
1753059291399,0.4620000123977661,-1.432050108909607,-0.999000072479248
1753059291416,,,1.8900001049041748
1753059291417,1.6249500513076782,-0.35295000672340393,
1753059291433,,,7.923000335693359
1753059291434,0.38805001974105835,-3.8869502544403076,
1753059291451,-6.004950523376465,-9.82395076751709,8.980050086975098
1753059291468,-18.76395034790039,-12.283950805664062,4.41195011138916
1753059291485,-22.639951705932617,-15.961950302124023,2.3809502124786377
1753059291501,,,6.385950088500977
1753059291502,-22.219051361083984,-12.508950233459473,
1753059291519,-16.378049850463867,-4.573950290679932,1.1839500665664673
1753059291536,-9.553950309753418,,-1.894050121307373
1753059291537,,1.8019500970840454,
1753059291553,,,0.45900002121925354
1753059291556,-2.3080501556396484,,
1753059291557,,5.10705041885376,
1753059291575,5.760000228881836,2.3809502124786377,8.27400016784668
1753059291588,11.163000106811523,-12.541950225830078,2.01705002784729
1753059291605,5.236050128936768,-38.75400161743164,-14.797050476074219
1753059291621,,,6.5370001792907715
1753059291622,-12.71505069732666,-46.845001220703125,
1753059291640,-5.059950351715088,-19.4010009765625,0.3439500033855438
1753059291662,0.6490500569343567,-11.101950645446777,3.0769500732421875
1753059291681,-0.24795001745224,-5.2420501708984375,-1.9969501495361328
1753059291695,1.0080000162124634,-1.9870500564575195,-5.071950435638428
1753059291707,,,-4.495050430297852
1753059291708,-3.8149502277374268,1.5460500717163086,
1753059291724,,,0.5089499950408936
1753059291725,-13.321950912475586,3.0390000343322754,
1753059291742,-13.713000297546387,-4.263000011444092,-2.2009501457214355
1753059291759,-9.183000564575195,-9.091950416564941,-2.076000213623047
1753059291776,-5.344950199127197,-10.413000106811523,3.289950132369995
1753059291795,-0.6540000438690186,-8.793000221252441,4.546050071716309
1753059291816,,,0.7219500541687012
1753059291817,2.7810001373291016,-8.107950210571289,
1753059291836,2.2450501918792725,-8.058000564575195,-2.2080001831054688
1753059291844,-1.0039499998092651,-8.616000175476074,-2.1790502071380615
1753059291861,,,-0.037950001657009125
1753059291862,-4.0570502281188965,-9.48900032043457,
1753059291879,,,1.4359500408172607
1753059291880,-8.838000297546387,-9.5110502243042,
1753059291896,-10.72605037689209,-9.25200080871582,1.818000078201294
1753059291913,-9.061050415039062,-8.245050430297852,-0.33900001645088196
1753059291930,-8.30505084991455,-6.634050369262695,-0.76500004529953
1753059291947,,,1.633950114250183
1753059291948,-9.135000228881836,,
1753059291949,,-5.212950229644775,
1753059291964,,,0.9000000357627869
1753059291965,-8.641950607299805,-4.147950172424316,
1753059291981,,,-1.4470500946044922
1753059291982,-6.250950336456299,-3.7170002460479736,
1753059291999,-4.897050380706787,-4.312950134277344,-1.384950041770935
1753059292016,-5.392050266265869,-7.723050594329834,-0.5590500235557556
1753059292033,-4.624050140380859,-14.256000518798828,-2.5290000438690186
1753059292050,-1.91100013256073,-17.737051010131836,-4.090950012207031
1753059292067,-2.2069501876831055,-15.297000885009766,-2.619000196456909
1753059292084,-4.294050216674805,-10.300050735473633,-1.2529500722885132
1753059292102,-4.123950004577637,-7.64400053024292,-0.26205000281333923
1753059292119,-4.279950141906738,-7.033950328826904,0.5550000071525574
1753059292136,,,0.8110500574111938
1753059292137,-3.703050136566162,-8.235000610351562,
1753059292163,-2.7079501152038574,-10.518000602722168,0.7489500641822815
1753059292179,-2.0710501670837402,-13.110000610351562,-0.09495000541210175
1753059292195,-2.77905011177063,-14.980950355529785,0.33195000886917114
1753059292204,,,-0.08505000174045563
1753059292205,-2.064000129699707,-17.35004997253418,
1753059292223,-0.05595000088214874,-18.967050552368164,-0.9540000557899475
1753059292243,0.49800002574920654,-15.699000358581543,0.3130500018596649
1753059292261,-0.8290500640869141,-10.494000434875488,1.333050012588501
1753059292274,-2.8510501384735107,-7.954950332641602,2.353950023651123
1753059292290,-5.749050140380859,-6.675000190734863,3.5680501461029053
1753059292307,-7.5010504722595215,-5.668050289154053,3.3190500736236572
1753059292324,,,2.7280502319335938
1753059292325,-7.813950538635254,-4.828050136566162,
1753059292342,-6.868950366973877,,2.2920000553131104
1753059292343,,-4.3969502449035645,
1753059292361,-5.6509504318237305,-4.3470001220703125,1.4119501113891602
1753059292375,,,0.4620000123977661
1753059292376,-4.603050231933594,-4.5169501304626465,
1753059292392,,,-0.3750000298023224
1753059292393,-3.088050127029419,-4.3969502449035645,
1753059292410,-0.9250500202178955,-4.01894998550415,-1.2220500707626343
1753059292427,1.2450000047683716,-3.3799500465393066,-1.0900501012802124
1753059292444,2.118000030517578,-2.8780500888824463,0.9450000524520874
1753059292462,0.283050000667572,-3.046950101852417,2.54295015335083
1753059292479,,,2.902050256729126
1753059292481,-2.2699501514434814,-3.3439502716064453,
1753059292495,-3.516000270843506,-4.0570502281188965,3.4770002365112305
1753059292513,-5.1820502281188965,-4.918950080871582,4.408050060272217
1753059292530,-7.434000492095947,-5.742000102996826,5.170950412750244
1753059292547,-9.445950508117676,-6.385950088500977,6.232950210571289
1753059292564,-11.671051025390625,-7.659000396728516,8.072999954223633
1753059292581,-15.297000885009766,-10.992000579833984,7.4350504875183105
1753059292599,-18.33300018310547,-14.344050407409668,7.959000587463379
1753059292615,,,7.73805046081543
1753059292616,-17.625,-11.533050537109375,
1753059292633,-13.801050186157227,,4.764000415802002
1753059292634,,-4.588050365447998,
1753059292650,,,1.1340000629425049
1753059292651,-8.080050468444824,-2.0590500831604004,
1753059292667,-3.3439502716064453,-5.518950462341309,0.9400500655174255
1753059292684,-0.30705001950263977,-10.534950256347656,2.365950107574463
1753059292701,2.836050033569336,-16.59105110168457,2.6700000762939453
1753059292718,,,-1.0350000858306885
1753059292719,5.679000377655029,-23.394001007080078,
1753059292735,0.703950047492981,-17.589000701904297,-2.743950128555298
1753059292752,,,-1.9180500507354736
1753059292755,0.9120000600814819,-8.452950477600098,
1753059292772,0.895050048828125,-5.278050422668457,0.33705002069473267
1753059292788,,,-0.30300000309944153
1753059292789,-3.7579500675201416,-6.034050464630127,
1753059292806,-7.089000225067139,-6.6850504875183105,-3.4549500942230225
1753059292821,-9.735000610351562,-6.058050155639648,-1.588050127029419
1753059292840,-10.330950736999512,-5.473950386047363,0.31800001859664917
1753059292857,-8.161050796508789,-6.40500020980835,0.5809500217437744
1753059292877,-5.6170501708984375,-6.961950302124023,0.4230000078678131
1753059292894,-3.7390501499176025,-6.945000171661377,2.050950050354004
1753059292911,-1.5640500783920288,-6.535950183868408,1.6530001163482666
1753059292924,-0.07800000160932541,-6.172950267791748,0.13095000386238098
1753059292941,-1.339050054550171,-5.893050193786621,-0.5740500092506409
1753059292958,,,-0.7750500440597534
1753059292959,-4.5859503746032715,-6.381000518798828,
1753059292976,,,-0.09495000541210175
1753059292977,-7.234950542449951,-7.582050323486328,
1753059292992,,,1.2559500932693481
1753059292993,-8.35200023651123,,
1753059292994,,-8.802000045776367,
1753059293012,-7.438050270080566,-8.98905086517334,2.107950210571289
1753059293026,,,1.0840500593185425
1753059293027,-5.569050312042236,-8.07705020904541,
1753059293043,,,-0.583050012588501
1753059293044,-3.9160501956939697,-7.4239501953125,
1753059293061,-3.6220502853393555,-7.659000396728516,-0.6330000162124634
1753059293078,-5.328000068664551,-8.443050384521484,-0.47505003213882446
1753059293095,-8.599050521850586,-8.833050727844238,0.44505003094673157
1753059293112,-8.12505054473877,-7.5169501304626465,-0.08505000174045563
1753059293130,-4.600050449371338,-6.2440505027771,-1.440000057220459
1753059293147,-3.8680500984191895,-8.447999954223633,-1.6530001163482666
1753059293164,-4.749000072479248,-13.086000442504883,-2.2390501499176025
1753059293181,-4.387050151824951,-16.000051498413086,-2.2320001125335693
1753059293198,-3.9180002212524414,-14.715001106262207,-1.6770000457763672
1753059293215,-5.529000282287598,-11.497050285339355,-0.23100000619888306
1753059293233,,,1.0810500383377075
1753059293235,-6.969000339508057,-9.196950912475586,
1753059293249,,,0.8659500479698181
1753059293250,-6.460050106048584,-7.837950229644775,
1753059293266,,,0.8590500354766846
1753059293267,-5.613000392913818,-6.807000160217285,
1753059293284,-3.355950117111206,-6.688950538635254,0.895050048828125
1753059293301,-1.4899500608444214,-7.984050273895264,0.547950029373169
1753059293318,,,-0.7339500188827515
1753059293319,-1.606950044631958,-12.040050506591797,
1753059293335,-2.479950189590454,-17.299951553344727,-1.3030500411987305
1753059293359,-1.228950023651123,-20.488950729370117,-2.950050115585327
1753059293380,1.6300500631332397,-21.27705192565918,-1.9999500513076782
1753059293397,0.07695000618696213,-15.163050651550293,1.057050108909607
1753059293405,-1.1470500230789185,-9.721050262451172,2.050950050354004
1753059293422,-3.327000141143799,-5.761050224304199,2.3209500312805176
1753059293444,-5.8690505027771,-4.717950344085693,5.109000205993652
1753059293465,-6.720000267028809,-4.837050437927246,3.690000057220459
1753059293485,-6.646050453186035,-4.642950057983398,2.275050163269043
1753059293489,,,1.6939500570297241
1753059293493,-6.204000473022461,-4.5259504318237305,
1753059293506,-5.304000377655029,-4.666950225830078,0.7200000286102295
1753059293523,-4.0980000495910645,-4.713000297546387,-0.2670000195503235
1753059293541,-2.671950101852417,-4.384950160980225,-1.1209501028060913
1753059293558,-0.4410000145435333,-3.7320001125335693,-1.3150500059127808
1753059293577,1.891050100326538,-2.9950501918792725,-0.5040000081062317
1753059293592,2.557950019836426,-2.4250500202178955,1.0410000085830688
1753059293609,,,2.992950201034546
1753059293610,0.0580500029027462,-2.7940502166748047,
1753059293626,,,3.309000253677368
1753059293627,-2.7769501209259033,,
1753059293643,-4.093050003051758,-3.9469501972198486,4.068000316619873
1753059293661,-5.968950271606445,-5.7270002365112305,6.714000225067139
1753059293678,-10.06605052947998,-7.599000453948975,9.067049980163574
1753059293695,-15.837000846862793,-9.610950469970703,7.695000171661377
1753059293712,-19.333051681518555,-13.179000854492188,6.817050457000732
1753059293730,,,6.949050426483154
1753059293731,-18.862051010131836,-13.570950508117676,
1753059293752,-16.516950607299805,-7.351950168609619,7.152000427246094
1753059293771,-11.60205078125,-3.1240501403808594,4.903050422668457
1753059293788,-7.144050121307373,-8.072999954223633,3.6630001068115234
1753059293799,-4.300950050354004,-15.805951118469238,0.44505003094673157
1753059293816,,,0.012000000104308128
1753059293817,-0.16095000505447388,-19.623001098632812,
1753059293832,4.470000267028809,-15.760951042175293,0.8440500497817993
1753059293849,5.833950042724609,,-1.0639500617980957
1753059293850,,-7.91895055770874,
1753059293866,3.6090002059936523,-1.5139501094818115,-3.040950059890747
1753059293883,-0.7740000486373901,0.9619500637054443,-1.64805006980896
1753059293900,,,-0.07304999977350235
1753059293901,-3.4110002517700195,-2.8969502449035645,
1753059293918,-6.889950275421143,-8.707050323486328,0.4930500090122223
1753059293935,-12.19800090789795,-15.178950309753418,0.9709500670433044
1753059293952,-15.370950698852539,-13.753050804138184,0.9880500435829163
1753059293980,-11.355000495910645,-7.708950519561768,2.5510501861572266
1753059294000,-6.366000175476074,-5.124000072479248,1.3350000381469727
1753059294003,,,0.8160000443458557
1753059294004,-2.641050100326538,-4.572000026702881,
1753059294021,0.9120000600814819,-4.921050071716309,0.23205001652240753
1753059294038,3.372000217437744,-5.632050037384033,-0.8940000534057617
1753059294056,2.874000072479248,-6.058050155639648,-1.2079501152038574
1753059294072,0.2160000056028366,-7.587000370025635,-0.8440500497817993
1753059294089,-3.7360501289367676,-10.221000671386719,-0.1399500072002411
1753059294106,-6.364050388336182,-12.021000862121582,-0.009000000543892384
1753059294123,-6.559950351715088,,0.5839500427246094
1753059294124,,-11.181000709533691,
1753059294143,,,0.7510500550270081
1753059294144,-5.4810004234313965,-7.9770002365112305,
1753059294164,-5.308950424194336,-5.622000217437744,-0.046950001269578934
1753059294174,-5.407050132751465,-5.641050338745117,0.45000001788139343
1753059294191,,,0.0
1753059294192,-4.591050148010254,-7.324050426483154,
1753059294208,,,-1.7359501123428345
1753059294209,-3.4210500717163086,-7.182000160217285,
1753059294227,-6.0960001945495605,-7.455000400543213,-1.0279500484466553
1753059294243,-7.6459503173828125,-11.704950332641602,-0.4830000102519989
1753059294315,-4.296000003814697,-12.49905014038086,-0.8650500178337097
1753059294381,,,-0.037950001657009125
1753059294382,-6.1870503425598145,-7.699050426483154,0.8130000233650208
1753059294449,,,-1.4800500869750977
1753059294450,-2.5279500484466553,-14.392050743103027,
1753059294584,2.140050172805786,-16.339950561523438,0.5140500068664551
1753059294651,-5.991000175476074,,3.3670501708984375
1753059294652,,-4.878000259399414,
1753059294717,,,0.6270000338554382
1753059294718,-4.597949981689453,-3.2340002059936523,
1753059294786,,,-0.04905000329017639
1753059294800,1.0909500122070312,-2.8320000171661377,
1753059294852,-4.027950286865234,-5.914050102233887,6.259950160980225
1753059294927,-15.823050498962402,-17.637001037597656,8.941950798034668
1753059294989,-7.032000541687012,-11.734050750732422,2.3209500312805176
1753059295057,4.485000133514404,-4.323000431060791,-2.502000093460083
1753059295123,-8.551050186157227,-11.904000282287598,-0.6760500073432922
1753059295189,,,1.3399500846862793
1753059295192,-2.2789502143859863,-6.253950119018555,
1753059295256,-2.0779500007629395,,-0.778950035572052
1753059295257,-6.51900053024292,-6.88800048828125,
1753059295330,-6.055050373077393,-7.801950454711914,2.3400001525878906
1753059295391,-5.785050392150879,-9.054000854492188,-0.7270500063896179
1753059295458,-4.579050064086914,,-0.13095000386238098
1753059295459,,-11.253000259399414,
1753059295460,,-14.080950736999512,
1753059295528,-7.264050483703613,-11.832000732421875,-0.19500000774860382
1753059295599,-4.902000427246094,-5.815950393676758,-0.24105000495910645
1753059295659,-0.6379500031471252,,-1.2460500001907349
1753059295660,,-16.584001541137695,
1753059295727,,,0.8830500245094299
1753059295728,0.45705002546310425,-8.725950241088867,
1753059295804,-7.323000431060791,-4.8919501304626465,3.5050501823425293
1753059295867,,,0.4230000078678131
1753059295868,-3.6000001430511475,-6.499950408935547,
1753059295929,-0.38895002007484436,,1.1080501079559326
1753059295930,,-4.243950366973877,
1753059295996,,,7.927050590515137
1753059295997,-4.4569501876831055,-5.695950508117676,8.607000350952148
1753059296063,-17.71605110168457,-15.5910005569458,5.6260504722595215
1753059296130,,,1.6200001239776611
1753059296131,-6.294000148773193,-7.552950382232666,
1753059296199,2.5249500274658203,-8.427000045776367,-3.346950054168701
1753059296265,,,-1.5709500312805176
1753059296266,-5.529000282287598,-5.638950347900391,1.4790000915527344
1753059296332,-4.275000095367432,,2.356950044631958
1753059296333,,-8.905050277709961,
1753059296400,-0.06795000284910202,-5.682000160217285,-0.7099500298500061
1753059296468,-6.6060004234313965,,1.7539501190185547
1753059296469,,-8.355000495910645,
1753059296535,-6.948000431060791,-8.926950454711914,-1.1119500398635864
1753059296605,-6.088950157165527,-12.367950439453125,-0.6289500594139099
1753059296677,,,-0.3679500222206116
1753059296678,-6.226950168609619,-10.635000228881836,0.20805001258850098
1753059296739,-3.4680001735687256,-5.998050212860107,2.3419501781463623
1753059296803,,,-3.8970000743865967
1753059296805,-2.0160000324249268,-20.035051345825195,
1753059296876,-0.7290000319480896,-7.393050193786621,2.1319501399993896
1753059296943,-6.121950149536133,-5.263050079345703,2.7880501747131348
1753059297005,-2.0179500579833984,-4.354050159454346,-1.1790000200271606
1753059297074,,,1.0980000495910645
1753059297075,0.18900001049041748,-2.848950147628784,
1753059297140,-13.28700065612793,-10.75005054473877,7.717050552368164
1753059297210,-11.872050285339355,-3.1620001792907715,3.3139500617980957
1753059297274,,,4.033950328826904
1753059297276,-3.1530001163482666,-14.1510009765625,
1753059297352,4.39394998550415,-3.01200008392334,-0.9970500469207764
1753059297408,-12.585000991821289,-7.44795036315918,1.3590000867843628
1753059297475,0.34200000762939453,-8.599050521850586,1.960050106048584
1753059297543,-3.9880502223968506,-7.015050411224365,-1.059000015258789
1753059297610,,,1.0339500904083252
1753059297611,-4.146000385284424,-8.116050720214844,
1753059297677,-7.885950565338135,-6.70395040512085,-0.6760500073432922
1753059297749,,,-0.6070500016212463
1753059297750,-5.766000270843506,-12.040050506591797,-1.0519500970840454
1753059297812,-2.8630502223968506,-7.228050231933594,0.44505003094673157
1753059297879,,,-1.075950026512146
1753059297880,-0.6859500408172607,-18.0439510345459,-2.3710501194000244
1753059297946,1.0410000085830688,-10.216950416564941,1.333050012588501
1753059298013,-6.675000190734863,-4.789050102233887,3.000000238418579
1753059298147,-3.0859501361846924,-3.016050100326538,-0.3820500075817108
1753059298214,,,0.7270500063896179
1753059298215,-0.039000000804662704,-2.041949987411499,1.4190000295639038
1753059298281,-8.632050514221191,-10.566000938415527,11.908950805664062
1753059298349,-10.852950096130371,-9.23805046081543,8.569050788879395
1753059298416,-1.9230000972747803,-23.32305145263672,-2.7679500579833984
1753059298485,0.9529500603675842,3.0319502353668213,-2.574000120162964
1753059298551,-14.068950653076172,,0.8089500665664673
1753059298552,-8.497950553894043,-16.825950622558594,
1753059298618,,,0.6390000581741333
1753059298619,3.0799500942230225,-4.440000057220459,
1753059298686,-5.3520002365112305,-9.582000732421875,-0.6619500517845154
1753059298756,-3.95205020904541,-7.7470502853393555,0.11205000430345535
1753059298820,-7.716000556945801,-8.589000701904297,-0.04905000329017639
1753059298887,-5.938050270080566,-12.339000701904297,-1.6810500621795654
1753059298954,,,1.5859500169754028
1753059298955,-1.954050064086914,-7.43595027923584,
1753059299022,,,-0.046950001269578934
1753059299023,-1.9939501285552979,-17.496000289916992,
1753059299089,0.06195000186562538,-8.838000297546387,0.6820500493049622
1753059299156,,,2.1130499839782715
1753059299157,-5.377950191497803,-4.678950309753418,2.30400013923645
1753059299223,-2.3650500774383545,-3.226950168609619,-0.3820500075817108
1753059299289,,,1.4359500408172607
1753059299290,-1.659000039100647,-2.3770501613616943,
1753059299315,-14.695950508117676,-19.020000457763672,10.789050102233887
1753059299333,-10.168950080871582,-7.740000247955322,8.49000072479248
1753059299349,-8.247000694274902,-0.8509500622749329,5.484000205993652
1753059299366,-5.401950359344482,-0.4990500211715698,2.4790501594543457
1753059299384,-4.605000019073486,-7.6870503425598145,-0.48705002665519714
1753059299403,-3.7080001831054688,-16.219951629638672,0.16995000839233398
1753059299423,1.2090001106262207,-22.261951446533203,1.6390501260757446
1753059299447,3.267000198364258,-15.409050941467285,-0.021000001579523087
1753059299468,3.195000171661377,-5.7709503173828125,-2.8780500888824463
1753059299469,2.7499501705169678,-0.29805001616477966,-2.3560500144958496
1753059299492,-0.9460500478744507,-2.454000234603882,-0.4320000112056732
1753059299514,-4.572000026702881,-5.7109503746032715,-0.8869500160217285
1753059299531,-8.460000038146973,-9.319050788879395,-1.2049500942230225
1753059299537,,,1.5220500230789185
1753059299538,-12.72195053100586,-11.881950378417969,
1753059299555,-12.451050758361816,-10.284000396728516,2.413950204849243
1753059299571,,,0.6910500526428223
1753059299572,-7.723050594329834,-7.861950397491455,
1753059299590,-4.40595006942749,-6.603000164031982,1.1700000762939453
1753059299606,-0.4030500054359436,-6.3760504722595215,1.960050106048584
1753059299623,3.5149502754211426,,0.5359500050544739
1753059299624,,-6.550950527191162,
1753059299640,3.42900013923645,-6.156000137329102,-0.5899500250816345
1753059299657,,,-0.4830000102519989
1753059299658,0.24705001711845398,-5.2819504737854,
1753059299679,-3.676950216293335,-6.352050304412842,-0.973050057888031
1753059299703,-6.7159504890441895,-8.52495002746582,-0.5740500092506409
1753059299709,-7.8760504722595215,-9.609000205993652,0.4210500121116638
1753059299726,-6.2659502029418945,-9.585000038146973,1.8139500617980957
1753059299743,,,1.7320500612258911
1753059299744,-3.913950204849243,-8.10105037689209,
1753059299760,,,0.8110500574111938
1753059299762,-3.106950044631958,-7.156050205230713,
1753059299780,-4.359000205993652,-7.927050590515137,-0.544950008392334
1753059299795,-6.199050426483154,-9.420000076293945,-0.9850500226020813
1753059299811,,,-0.5160000324249268
1753059299812,-6.12000036239624,-9.364950180053711,
1753059299829,-4.69605016708374,-7.477050304412842,-0.8989500403404236
1753059299846,-5.902050495147705,-9.520050048828125,-0.3679500222206116
1753059299863,,,-0.8389500379562378
1753059299864,-6.201000213623047,-15.052950859069824,
1753059299880,-4.504950046539307,-16.63395118713379,-0.999000072479248
1753059299897,,,-0.8890500664710999
1753059299898,-4.999950408935547,-13.098000526428223,
1753059299914,-5.317950248718262,,-0.906000018119812
1753059299915,,-11.125950813293457,
1753059299932,-6.216000080108643,-9.364950180053711,-1.4449501037597656
1753059299949,-6.201000213623047,-7.0219502449035645,-0.987000048160553
1753059299966,-4.866000175476074,-5.6010003089904785,0.9859500527381897
1753059299983,,,2.07705020904541
1753059299984,-3.1930501461029053,-6.433050155639648,
1753059300019,-1.746000051498413,-8.773950576782227,1.9120501279830933
1753059300034,-2.3010001182556152,-17.56005096435547,-1.287000060081482
1753059300051,-1.6399500370025635,-20.068050384521484,-1.440000057220459
1753059300069,-0.2550000250339508,-19.360050201416016,-1.546950101852417
1753059300086,,,-0.544950008392334
1753059300087,0.742050051689148,-15.792000770568848,
1753059300104,0.856950044631958,-11.329050064086914,-0.1879500150680542
1753059300124,0.20595000684261322,-6.880950450897217,0.14295001327991486
1753059300143,-1.7890501022338867,-5.622000217437744,3.3640501499176025
1753059300154,,,3.430950164794922
1753059300155,-4.5859503746032715,-4.950000286102295,
1753059300172,-5.872950077056885,-4.572000026702881,2.035950183868408
1753059300190,-5.734950065612793,-4.666950225830078,2.16795015335083
1753059300210,-5.317950248718262,-4.876049995422363,2.4499502182006836
1753059300229,-4.7820000648498535,-4.921050071716309,1.90500009059906
1753059300249,,,0.6889500617980957
1753059300250,-3.7219502925872803,-4.427999973297119,
1753059300257,-2.0970001220703125,-3.6120002269744873,-0.8320500254631042
1753059300274,-0.492000013589859,-2.461050033569336,-1.3300501108169556
1753059300291,,,-0.9439500570297241
1753059300292,0.9430500268936157,-1.771950125694275,
1753059300309,1.055999994277954,-1.6309500932693481,0.08595000207424164
1753059300325,-0.19305001199245453,-2.1859500408172607,1.2919501066207886
1753059300342,,,2.9860501289367676
1753059300343,-1.2049500942230225,-3.079050064086914,
1753059300360,-2.69100022315979,-5.644050121307373,5.908050060272217
1753059300377,-6.160050392150879,-9.19005012512207,9.681000709533691
1753059300394,,,8.574000358581543
1753059300395,-12.316950798034668,-12.910950660705566,
1753059300411,,,5.3959503173828125
1753059300412,-16.479000091552734,-16.78005027770996,
1753059300428,,,8.143050193786621
1753059300429,-17.62005043029785,-18.687000274658203,
1753059300445,-14.631000518798828,-12.607050895690918,7.6810503005981445
1753059300463,-12.877050399780273,-4.821000099182129,4.2619500160217285
1753059300480,-11.355000495910645,0.6010500192642212,1.540950059890747
1753059300497,,,-0.0019500000635161996
1753059300498,-8.308950424194336,2.2729501724243164,
1753059300514,-6.1650004386901855,-3.574050188064575,0.8610000610351562
1753059300531,,,1.1890500783920288
1753059300532,-3.598050117492676,-12.874950408935547,
1753059300548,1.8160500526428223,-25.861051559448242,4.2900004386901855
1753059300565,3.95805025100708,-30.649951934814453,0.8730000257492065
1753059300583,-1.3030500411987305,-13.045050621032715,-3.450000047683716
1753059300600,,,-2.064000129699707
1753059300601,4.300050258636475,-2.842050075531006,
1753059300618,2.7109501361846924,-1.0639500617980957,0.6100500226020813
1753059300634,-0.24000000953674316,-2.848950147628784,-1.3920000791549683
1753059300651,-2.7550501823425293,-4.394999980926514,-3.808950185775757
1753059300670,-8.440950393676758,-7.338000297546387,1.2490500211715698
1753059300685,,,1.0930500030517578
1753059300686,-13.417950630187988,-10.65000057220459,
1753059300703,-10.498950958251953,,-0.8530500531196594
1753059300704,,-10.522950172424316,
1753059300723,-7.174950122833252,-8.93595027923584,1.045050024986267
1753059300743,-3.2290501594543457,-7.387950420379639,3.1969501972198486
1753059300766,2.455050230026245,-6.345000267028809,0.6670500040054321
1753059300786,3.891000270843506,-5.47605037689209,-1.954050064086914
1753059300788,,,-1.76295006275177
1753059300789,1.8049501180648804,-5.124000072479248,
1753059300806,-2.325000047683716,-6.697050094604492,-0.9400500655174255
1753059300823,-5.683950424194336,-9.673050880432129,-0.13305000960826874
1753059300840,-7.972050189971924,-10.980000495910645,1.495050072669983
1753059300857,-8.314050674438477,-10.099050521850586,2.6800501346588135
1753059300874,-7.027050495147705,-8.395950317382812,1.8660000562667847
1753059300891,-5.7109503746032715,-7.635000228881836,0.024000000208616257
1753059300908,-5.301000118255615,-7.048050403594971,-0.43695002794265747
1753059300926,-5.701050281524658,-5.589000225067139,-1.5040500164031982
1753059300943,-6.979050159454346,-5.119950294494629,-1.801050066947937
1753059300963,-7.126950263977051,-9.37695026397705,-0.28905001282691956
1753059300985,-5.725050449371338,-15.604950904846191,-0.46800002455711365
1753059300994,-2.5420501232147217,-17.323951721191406,-0.9589500427246094
1753059301012,-3.394050121307373,-13.669950485229492,-1.1260499954223633
1753059301028,,,-1.7290500402450562
1753059301029,-5.8470001220703125,-9.760050773620605,
1753059301045,-6.955050468444824,-7.0819501876831055,-1.1329500675201416
1753059301062,,,-0.4420500099658966
1753059301063,-6.373050212860107,-5.815950393676758,
1753059301082,-4.753050327301025,-6.919050216674805,1.6770000457763672
1753059301101,,,1.5649501085281372
1753059301102,-2.2960500717163086,-9.685050010681152,
1753059301114,-1.1640000343322754,-12.636000633239746,0.025950001552700996
1753059301131,,,-1.6140000820159912
1753059301132,-0.3340500295162201,-15.471000671386719,
1753059301149,-0.3840000033378601,-17.533950805664062,-1.4590500593185425
1753059301165,,,-2.2489500045776367
1753059301166,0.6030000448226929,-18.510000228881836,
1753059301182,,,-2.8969502449035645
1753059301183,1.9120501279830933,-17.601001739501953,
1753059301203,1.4020500183105469,-13.839000701904297,-1.0470000505447388
1753059301226,0.9100500345230103,-10.321950912475586,1.194000005722046
1753059301248,-0.5299500226974487,,0.4930500090122223
1753059301249,,-7.1610002517700195,
1753059301267,-3.9019501209259033,-5.317950248718262,2.746950149536133
1753059301268,-6.211050510406494,-4.915950298309326,4.249950408935547
1753059301285,-6.285000324249268,-5.107950210571289,2.802000045776367
1753059301303,,,2.593950033187866
1753059301304,-5.884950160980225,-5.034000396728516,
1753059301320,-5.445000171661377,-5.043000221252441,2.0149500370025635
1753059301336,,,0.781950056552887
1753059301337,-4.653000354766846,-4.926000118255615,
1753059301354,-2.8969502449035645,-4.762950420379639,-0.40095001459121704
1753059301371,-0.8890500664710999,-4.153050422668457,-1.231950044631958
1753059301388,0.7540500164031982,-3.3490500450134277,-1.4449501037597656
1753059301405,1.64205002784729,-3.0400500297546387,-0.3060000240802765
1753059301422,0.5670000314712524,-3.2479500770568848,1.2060000896453857
1753059301440,-1.576050043106079,,2.007000207901001
1753059301441,,-3.037950038909912,
1753059301462,-2.5350000858306885,-3.8869502544403076,3.1489500999450684
1753059301484,-4.102950096130371,-5.658000469207764,5.238000392913818
1753059301492,-7.777950286865234,-8.058000564575195,7.695000171661377
1753059301509,-13.006950378417969,-10.092000007629395,7.896000385284424
1753059301529,-16.37594985961914,-13.00005054473877,5.197050094604492
1753059301551,-17.134050369262695,-16.13895034790039,6.987000465393066
1753059301559,,,7.1449503898620605
1753059301561,-15.208050727844238,-12.97605037689209,
1753059301576,,,4.543950080871582
1753059301577,-12.052050590515137,-5.794050216674805,
1753059301594,-8.845050811767578,,2.634000062942505
1753059301595,,-0.8410500288009644,
1753059301615,-6.091050148010254,-0.13005000352859497,0.5020500421524048
1753059301632,-3.9210002422332764,,0.23895001411437988
1753059301633,,-6.649050235748291,
1753059301645,-1.8750001192092896,-17.13195037841797,2.6610000133514404
1753059301662,4.504050254821777,-30.126001358032227,0.6720000505447388
1753059301679,-0.41805002093315125,,0.5860500335693359
1753059301680,,-22.392000198364258,
1753059301697,-0.36705002188682556,-6.651000499725342,-2.373000144958496
1753059301713,2.605950117111206,,-1.6050000190734863
1753059301714,,0.028950002044439316,
1753059301731,-0.09000000357627869,-0.9970500469207764,0.41100001335144043
1753059301748,-2.2290000915527344,-4.3060503005981445,-1.4899500608444214
1753059301765,,,-1.8199501037597656
1753059301766,-5.407050132751465,-7.443000316619873,
1753059301783,-10.504050254821777,-10.32705020904541,0.5089499950408936
1753059301801,-10.957950592041016,-11.703001022338867,0.40905001759529114
1753059301818,-6.631950378417969,-10.519950866699219,-0.009000000543892384
1753059301834,,,1.0290000438690186
1753059301835,-3.9930002689361572,-8.998950004577637,
1753059301851,-0.3859500288963318,-7.309050559997559,1.555050015449524
1753059301869,3.0700502395629883,-5.838000297546387,-0.2070000171661377
1753059301891,2.6419501304626465,-5.06505012512207,-0.7290000319480896
1753059301911,,,-0.8130000233650208
1753059301912,-0.030000001192092896,-5.467050075531006,
1753059301919,-3.870000123977661,,-1.1860500574111938
1753059301920,,-7.663050174713135,
1753059301936,,,-0.8989500403404236
1753059301937,-6.306000232696533,-9.790950775146484,
1753059301958,-7.0000505447387695,-10.410000801086426,0.09105000644922256
1753059301980,-5.895000457763672,-9.949050903320312,2.0029501914978027
1753059301998,-3.684000253677368,-8.647050857543945,1.9759501218795776
1753059302005,-2.5540502071380615,-7.62000036239624,0.3040500283241272
1753059302022,-3.0400500297546387,-7.336050510406494,-1.1190000772476196
1753059302039,,,-1.311000108718872
1753059302040,-5.335050106048584,-7.954950332641602,
1753059302057,-7.893000602722168,-8.640000343322754,-0.4440000355243683
1753059302073,-6.8110504150390625,,0.1099500060081482
1753059302074,,-8.110950469970703,
1753059302090,,,0.037950001657009125
1753059302091,-5.397000312805176,-7.953000545501709,
1753059302107,,,0.23205001652240753
1753059302108,-5.94795036315918,-11.308050155639648,
1753059302125,-5.493000030517578,-14.809050559997559,-1.2529500722885132
1753059302142,-4.627050399780273,-14.566950798034668,-1.8130500316619873
1753059302159,-4.873050212860107,-12.09000015258789,-1.8130500316619873
1753059302177,-5.335050106048584,-10.468050956726074,-0.973050057888031
1753059302193,,,-0.4420500099658966
1753059302194,-5.758050441741943,-8.752050399780273,
1753059302215,-5.158050060272217,-7.182000160217285,-0.022950001060962677
1753059302233,,,1.0720500946044922
1753059302234,-4.70805025100708,-6.402000427246094,
1753059302245,-3.9760501384735107,-7.192050457000732,0.9930000305175781
1753059302261,,,1.1890500783920288
1753059302262,-2.9280002117156982,-9.157050132751465,
1753059302279,-1.7910001277923584,-12.43695068359375,0.20805001258850098
1753059302296,,,-1.4299501180648804
1753059302297,-1.5610500574111938,-16.369050979614258,
1753059302313,,,-2.6479501724243164
1753059302314,-0.1469999998807907,-19.261951446533203,
1753059302330,,,-2.808000087738037
1753059302331,1.76895010471344,-18.994050979614258,
1753059302348,,,-0.7429500222206116
1753059302349,1.7280000448226929,-14.410950660705566,
1753059302366,2.1660001277923584,-10.731000900268555,1.1890500783920288
1753059302382,1.443000078201294,-7.5169501304626465,0.1960500031709671
1753059302400,-2.5830001831054688,-5.506950378417969,1.9500000476837158
1753059302418,-6.280050277709961,-4.978050231933594,3.4650001525878906
1753059302433,-7.318950176239014,-5.4810004234313965,2.4690001010894775
1753059302451,-7.093950271606445,-5.746950149536133,2.350050210952759
1753059302468,-6.9120001792907715,-5.84505033493042,2.3929500579833984
1753059302484,-6.739950180053711,-5.84505033493042,2.1409502029418945
1753059302502,-5.623950481414795,-5.875950336456299,1.3830000162124634
1753059302518,,,0.07905000448226929
1753059302519,-3.604950189590454,-5.409000396728516,
1753059302536,,,-0.7000500559806824
1753059302537,-1.7310000658035278,-4.636050224304199,
1753059302553,-0.3840000033378601,,-0.6930000185966492
1753059302554,,-4.2370500564575195,
1753059302570,0.09795000404119492,-4.110000133514404,0.16995000839233398
1753059302587,,,1.1959500312805176
1753059302589,-0.46800002455711365,-4.194000244140625,
1753059302608,-0.9340500235557556,-4.404000282287598,1.7470500469207764
1753059302628,-1.2499500513076782,-5.332950115203857,2.7300000190734863
1753059302648,-2.3749501705169678,-6.826050281524658,4.623000144958496
1753059302667,-4.1770501136779785,-8.179950714111328,6.68595027923584
1753059302674,,,7.480050563812256
1753059302675,-6.7950005531311035,-9.496050834655762,
1753059302690,-11.659050941467285,-10.872000694274902,5.664000034332275
1753059302760,,,6.3100504875183105
1753059302761,-15.919051170349121,-13.216950416564941,5.0970001220703125
1753059302827,-11.953950881958008,-1.576050043106079,1.0000500679016113
1753059302962,,,6.12600040435791
1753059302963,,,0.6220500469207764
1753059302964,2.3449501991271973,-18.572999954223633,
1753059303035,1.9120501279830933,-2.559000015258789,-2.0190000534057617
1753059303097,-13.27500057220459,-11.631000518798828,-1.7220001220703125
1753059303164,2.5729501247406006,-6.478950500488281,-1.2529500722885132
1753059303231,-6.414000511169434,-9.343050003051758,-0.33900001645088196
1753059303303,-2.9200501441955566,-8.029050827026367,-0.2460000067949295
1753059303367,-7.678050518035889,-8.64900016784668,1.1560500860214233
1753059303436,-6.168000221252441,-14.26305103302002,-1.6579500436782837
1753059303500,-4.858950138092041,,0.22200001776218414
1753059303501,-4.0570502281188965,-8.40000057220459,
1753059303568,-1.6519501209259033,-11.832000732421875,-0.28395000100135803
1753059303635,2.2639501094818115,-15.406950950622559,-1.2199500799179077
1753059303702,,,3.5680501461029053
1753059303703,-5.839950084686279,-5.91195011138916,
1753059303769,-5.187000274658203,-5.469000339508057,1.6990500688552856
1753059303846,-0.5110500454902649,-3.90405011177063,-0.14805001020431519
1753059303903,,,3.264000177383423
1753059303904,-2.3389501571655273,-3.6289501190185547,5.575050354003906
1753059303971,,,5.488950252532959
1753059303972,-16.693950653076172,-17.248950958251953,7.759950160980225
1753059304045,-6.835050106048584,0.29205000400543213,0.9780000448226929
1753059304106,2.0059502124786377,-26.400001525878906,2.4760501384735107
1753059304172,,,-0.8800500631332397
1753059304173,-0.39795002341270447,-2.1499500274658203,-3.057000160217285
1753059304246,-10.45305061340332,,-0.07800000160932541
1753059304307,,,-0.08100000023841858
1753059304308,2.8720500469207764,-5.55495023727417,
1753059304374,,,-0.009000000543892384
1753059304375,-6.6850504875183105,-10.099050521850586,
1753059304442,,,0.025950001552700996
1753059304443,-3.994950294494629,-6.886050224304199,-0.7510500550270081
1753059304509,-3.922950267791748,-6.756000518798828,0.28005000948905945
1753059304590,-3.415950059890747,-14.842050552368164,-1.8679500818252563
1753059304644,-4.464000225067139,-7.9860005378723145,-0.10200000554323196
1753059304711,,,0.4069500267505646
1753059304712,-1.8799500465393066,-13.411050796508789,
1753059304782,,,-0.28905001282691956
1753059304783,0.5290500521659851,-12.906000137329102,0.9469500184059143
1753059304845,,,3.412050247192383
1753059304846,-7.603050231933594,-5.407050132751465,
1753059304913,-5.170050144195557,,1.1010000705718994
1753059304914,,-5.469000339508057,
1753059304981,0.8779500126838684,-3.756000280380249,-0.4510500133037567
1753059305047,,,3.649050235748291
1753059305048,-3.0709500312805176,-7.093950271606445,6.264000415802002
1753059305114,,,5.347950458526611
1753059305115,-16.677000045776367,-14.173951148986816,5.020050048828125
1753059305188,-9.015000343322754,-1.4820001125335693,1.7749500274658203
1753059305265,-0.7960500121116638,-16.299001693725586,5.2260003089904785
1753059305316,2.7780001163482666,-4.890000343322754,-1.5000001192092896
1753059305384,-12.028050422668457,-11.3100004196167,1.0549499988555908
1753059305451,,,0.5430000424385071
1753059305453,1.38795006275177,-5.995050430297852,
1753059305517,,,0.9430500268936157
1753059305518,-6.535950183868408,-9.694950103759766,
1753059305585,,,1.5120000839233398
1753059305586,-4.204950332641602,-6.373950481414795,
1753059305661,-5.115000247955322,-8.902950286865234,0.44505003094673157
1753059305720,-4.203000068664551,,-1.1880000829696655
1753059305721,-5.2819504737854,-8.958000183105469,
1753059305787,-4.15500020980835,-13.10205078125,-0.9420000314712524
1753059305861,-4.2370500564575195,-7.120050430297852,0.2749500274658203
1753059305921,-1.446000099182129,-11.973000526428223,0.598050057888031
1753059305922,,-14.698050498962402,
1753059305988,,,-0.778950035572052
1753059305989,-0.527999997138977,-13.039950370788574,2.5630500316619873
1753059306056,,,2.6580002307891846
1753059306057,-5.629050254821777,-6.895050525665283,2.353950023651123
1753059306127,-4.660050392150879,-4.957050323486328,0.8610000610351562
1753059306191,1.29705011844635,,-0.1189500093460083
1753059306192,,-5.119950294494629,
1753059306258,0.14595000445842743,-6.814050197601318,3.9619503021240234
1753059306325,-7.254000186920166,-14.032950401306152,6.469950199127197
1753059306393,-9.407999992370605,-10.008000373840332,5.092050075531006
1753059306460,,,0.20805001258850098
1753059306461,1.8310500383377075,-11.137950897216797,
1753059306594,,,-5.032050132751465
1753059306595,4.377000331878662,-5.85705041885376,
1753059306662,-7.579050540924072,-13.59105110168457,3.3160500526428223
1753059306729,1.9620001316070557,,1.4380500316619873
1753059306730,4.89900016784668,-6.358950138092041,
1753059306796,,,0.40905001759529114
1753059306797,-0.21405000984668732,-5.767950057983398,
1753059306863,,,2.1289501190185547
1753059306871,-1.240950107574463,-10.324050903320312,
1753059306934,-2.619000196456909,-10.189950942993164,-0.018000001087784767
1753059306999,-2.9130001068115234,-14.940000534057617,1.218000054359436
1753059307082,-1.26705002784729,-13.384950637817383,0.31800001859664917
1753059307134,,,-0.15195000171661377
1753059307135,2.508000135421753,-8.017050743103027,0.7540500164031982
1753059307206,5.736000061035156,-14.365950584411621,-0.5209500193595886
1753059307267,-3.775050163269043,-7.591950416564941,3.460050106048584
1753059307345,-3.0900001525878906,-7.173000335693359,2.991000175476074
1753059307403,1.5940500497817993,-3.4489500522613525,-0.5209500193595886
1753059307469,-1.4680501222610474,-4.938000202178955,3.2950501441955566
1753059307536,-5.84505033493042,-14.146050453186035,9.235950469970703
1753059307537,,-17.029050827026367,
1753059307610,-9.100950241088867,-7.704000473022461,8.104949951171875
1753059307670,,,-0.12600000202655792
1753059307671,4.474950313568115,-12.925050735473633,
1753059307741,-1.971000075340271,-8.749950408935547,-1.0230000019073486
1753059307742,-3.4639501571655273,-11.985000610351562,
1753059307762,-0.8119500279426575,-6.607950210571289,0.8760000467300415
1753059307779,0.9379500150680542,-6.637050151824951,0.3679500222206116
1753059307798,2.593950033187866,-6.598050117492676,0.4540500342845917
1753059307814,2.6610000133514404,-7.26900053024292,0.18405000865459442
1753059307832,0.4410000145435333,-8.908050537109375,0.32295000553131104
1753059307850,-3.616950273513794,-8.647050857543945,0.9160500168800354
1753059307868,-5.446950435638428,-8.452950477600098,1.2420001029968262
1753059307886,-4.999950408935547,-8.539050102233887,2.2829999923706055
1753059307902,-3.5020501613616943,-8.701950073242188,2.6460001468658447
1753059307917,-1.7809500694274902,-9.697050094604492,2.139000177383423
1753059307933,,,1.5810000896453857
1753059307934,-0.9490500688552856,-10.071000099182129,
1753059307956,,,1.057050108909607
1753059307957,-1.8750001192092896,-9.52695083618164,
1753059307975,-3.6600000858306885,-9.219000816345215,0.7990500330924988
1753059307993,-4.5520501136779785,-8.908050537109375,0.39705002307891846
1753059308002,,,-0.625950038433075
1753059308003,-3.7320001125335693,-8.656050682067871,
1753059308019,-2.1600000858306885,-10.177950859069824,-1.2079501152038574
1753059308036,-1.2450000047683716,-14.064001083374023,0.6100500226020813
1753059308053,,,0.5410500168800354
1753059308054,-0.753000020980835,,
1753059308055,,-15.87600040435791,
1753059308070,,,0.13095000386238098
1753059308071,0.4620000123977661,-14.76300048828125,
1753059308087,0.36900001764297485,-13.179000854492188,0.5140500068664551
1753059308104,,,1.0549499988555908
1753059308105,-1.5570000410079956,-13.134000778198242,
1753059308122,-3.6480002403259277,-11.628000259399414,1.609950065612793
1753059308139,-3.8899502754211426,-10.129950523376465,1.5670500993728638
1753059308156,-2.877000093460083,-10.594950675964355,0.0070500001311302185
1753059308173,-2.86995005607605,-8.967000007629395,-2.55495023727417
1753059308190,,,0.5689499974250793
1753059308191,-1.3750500679016113,-9.80505084991455,
1753059308211,1.7569501399993896,-10.528050422668457,2.7400500774383545
1753059308231,2.307000160217285,-11.535000801086426,-0.934950053691864
1753059308242,2.764050245285034,-12.846000671386719,-1.1329500675201416
1753059308259,3.4579501152038574,-10.939050674438477,-1.5349500179290771
1753059308276,4.570950031280518,-10.963050842285156,-0.9520500302314758
1753059308293,3.00600004196167,-10.882050514221191,1.4280000925064087
1753059308311,0.6630000472068787,-10.984950065612793,2.950050115585327
1753059308327,,,3.0649502277374268
1753059308328,-1.8960001468658447,-9.79995059967041,
1753059308344,,,2.7880501747131348
1753059308345,-3.2320501804351807,-9.427050590515137,
1753059308362,-3.412950277328491,-8.209050178527832,2.0650501251220703
1753059308379,-3.306000232696533,-6.8710503578186035,2.0220000743865967
1753059308396,-2.242950201034546,-6.199050426483154,1.6320000886917114
1753059308416,-1.144950032234192,-6.1870503425598145,1.6290000677108765
1753059308441,0.13905000686645508,-6.022050380706787,0.8250000476837158
1753059308465,0.703950047492981,-5.91195011138916,0.20100000500679016
1753059308484,0.7590000629425049,-5.4910502433776855,-0.18300001323223114
1753059308500,0.6460500359535217,-5.335050106048584,0.9330000281333923
1753059308516,0.10305000841617584,-5.199000358581543,1.7970000505447388
1753059308533,-0.4510500133037567,-5.613000392913818,2.806950092315674
1753059308550,-1.0279500484466553,-5.830050468444824,3.3829500675201416
1753059308567,-1.4110500812530518,-6.61305046081543,4.585050106048584
1753059308585,,,6.98205041885376
1753059308587,-2.3940000534057617,-7.431000232696533,
1753059308601,-3.3580501079559326,,10.213050842285156
1753059308602,,-9.379050254821777,
1753059308619,-4.861050128936768,-12.837000846862793,9.538050651550293
1753059308636,-6.289950370788574,-15.124051094055176,7.243050575256348
1753059308653,-4.359000205993652,-16.314001083374023,7.083000183105469
1753059308670,-7.1419501304626465,-15.940051078796387,9.43695068359375
1753059308691,-10.446000099182129,-12.408000946044922,6.7260003089904785
1753059308713,-5.995050430297852,-12.553950309753418,1.9240500926971436
1753059308731,-0.6660000085830688,-13.011000633239746,-0.6049500107765198
1753059308738,2.451000213623047,,0.3130500018596649
1753059308739,,-12.700050354003906,
1753059308756,5.296050071716309,-11.949000358581543,3.582000255584717
1753059308773,6.502050399780273,-10.630950927734375,5.215950012207031
1753059308790,3.3889501094818115,-7.5960001945495605,-3.20805025100708
1753059308807,0.07395000010728836,-8.214000701904297,-4.858950138092041
1753059308824,,,-1.9999500513076782
1753059308825,-3.028050184249878,-9.421950340270996,
1753059308841,,,0.05700000375509262
1753059308842,-3.366000175476074,-10.69005012512207,
1753059308859,-5.083950042724609,-10.576050758361816,3.44100022315979
1753059308876,-6.031050205230713,-10.3410005569458,3.766050100326538
1753059308893,-6.079050064086914,-8.826000213623047,2.1510000228881836
1753059308910,,,1.7149500846862793
1753059308911,-4.036050319671631,-7.591950416564941,
1753059308927,-1.0990500450134277,-7.1509504318237305,1.3900500535964966
1753059308944,1.5769500732421875,-6.985950469970703,0.7729500532150269
1753059308961,,,0.8230500221252441
1753059308962,3.324000120162964,-6.448050498962402,
1753059308980,3.621000289916992,-6.2989501953125,0.06405000388622284
1753059308998,2.8650002479553223,-6.594000339508057,-0.7980000376701355
1753059309014,-0.0970500037074089,-6.955050468444824,-0.19095000624656677
1753059309031,-3.2890501022338867,-7.6110005378723145,0.9109500646591187
1753059309049,-3.3540000915527344,-8.242050170898438,1.6249500513076782
1753059309069,-2.6020500659942627,-8.601000785827637,1.7920501232147217
1753059309081,,,2.244000196456909
1753059309082,-1.8889501094818115,-8.908050537109375,
1753059309099,,,1.957050085067749
1753059309101,-0.22605000436306,-9.235050201416016,
1753059309120,-0.9540000557899475,-8.776050567626953,2.146050214767456
1753059309141,-2.9350502490997314,-9.417000770568848,1.3129500150680542
1753059309159,-4.806000232696533,-10.147050857543945,1.1359500885009766
1753059309178,,,1.048050045967102
1753059309179,-4.102950096130371,-10.38900089263916,
1753059309184,-1.5540000200271606,-10.93695068359375,-0.2460000067949295
1753059309201,-0.7879500389099121,,2.227950096130371
1753059309202,,-12.598051071166992,
1753059309218,,,1.5910500288009644
1753059309219,-1.533000111579895,-14.035950660705566,
1753059309236,-1.828950047492981,-14.72700023651123,0.04005000367760658
1753059309252,-0.8749500513076782,-14.553000450134277,1.0980000495910645
1753059309270,-1.0039499998092651,-13.50195026397705,1.8930001258850098
1753059309287,-2.140050172805786,-13.119000434875488,1.0669500827789307
1753059309305,,,0.23895001411437988
1753059309306,-3.205050230026245,-12.02595043182373,
1753059309326,-2.8320000171661377,-10.88700008392334,0.0499500036239624
1753059309346,-1.1860500574111938,-10.051050186157227,0.8089500665664673
1753059309355,-0.3150000274181366,-9.771000862121582,0.1789500117301941
1753059309372,,,-1.1500500440597534
1753059309373,-0.40095001459121704,-9.460050582885742,
1753059309390,1.6939500570297241,-10.080000877380371,-0.7860000133514404
1753059309409,3.6060001850128174,-11.356050491333008,-0.7219500541687012
1753059309424,4.228950023651123,-12.073050498962402,-1.6840500831604004
1753059309441,4.269000053405762,-12.655050277709961,-0.16005000472068787
1753059309459,3.207000255584717,-11.725950241088867,1.9519500732421875
1753059309476,,,3.0510001182556152
1753059309477,1.6630500555038452,-11.236050605773926,
1753059309492,,,2.686950206756592
1753059309493,-0.5490000247955322,-10.777050971984863,
1753059309511,-0.7429500222206116,-9.64905071258545,2.9890501499176025
1753059309530,-0.4650000333786011,-8.668050765991211,3.5149502754211426
1753059309543,,,1.9720500707626343
1753059309544,-2.8969502449035645,-6.241950511932373,
1753059309561,-4.5169501304626465,-4.234050273895264,0.6990000605583191
1753059309578,-3.14805006980896,-3.8200502395629883,1.4929500818252563
1753059309599,-1.533000111579895,-4.014000415802002,1.324950098991394
1753059309617,-0.5610000491142273,-4.431000232696533,0.6630000472068787
1753059309632,-0.05595000088214874,-4.507050037384033,0.5670000314712524
1753059309649,0.2179500162601471,-4.051949977874756,0.42795002460479736
1753059309666,0.19200000166893005,-4.15500020980835,1.1989500522613525
1753059309683,,,1.6630500555038452
1753059309698,0.4909500181674957,-4.648050308227539,3.2059502601623535
1753059309716,0.3859500288963318,-5.365950107574463,5.920050144195557
1753059309732,-1.2360000610351562,-7.204050540924072,9.91395092010498
1753059309749,-4.2460503578186035,-10.33395004272461,14.190000534057617
1753059309767,-8.002950668334961,-16.18695068359375,8.73900032043457
1753059309784,-10.144950866699219,-21.58500099182129,6.079950332641602
1753059309806,-12.718950271606445,-18.52695083618164,9.886950492858887
1753059309822,-9.670950889587402,-10.140000343322754,9.646050453186035
1753059309835,-8.793000221252441,-2.514000177383423,5.905050277709961
1753059309855,-7.833000183105469,-1.855950117111206,0.9589500427246094
1753059309870,-3.724950075149536,-8.086950302124023,-0.361050009727478
1753059309890,0.6270000338554382,-16.20600128173828,-2.332050085067749
1753059309905,6.885000228881836,-26.077051162719727,4.105950355529785
1753059309926,9.249000549316406,-17.14605140686035,8.61405086517334
1753059309938,6.210000514984131,-5.068950176239014,-2.5480501651763916
1753059309955,2.1750001907348633,-2.499000072479248,-2.7649500370025635
1753059309972,-1.3560000658035278,-3.832050085067749,-2.887050151824951
1753059309989,-4.01894998550415,-6.418950080871582,-4.2900004386901855
1753059310006,-7.945950508117676,-8.37405014038086,-0.21900001168251038
1753059310023,-10.201950073242188,-12.571050643920898,4.2330002784729
1753059310040,-8.02695083618164,,3.100950241088867
1753059310041,,-13.516050338745117,
1753059310057,,,0.9829500317573547
1753059310058,-5.158050060272217,-9.919950485229492,
1753059310075,-3.6000001430511475,-7.266000270843506,1.4070000648498535
1753059310092,-0.44895002245903015,-6.055050373077393,2.098050117492676
1753059310109,3.6259500980377197,-5.500050067901611,1.0049999952316284
1753059310126,,,-0.21195000410079956
1753059310128,4.1449503898620605,-5.353950023651123,
1753059310150,1.9429501295089722,-6.61305046081543,-0.8610000610351562
1753059310160,-1.3459500074386597,-8.898000717163086,-0.24105000495910645
1753059310177,,,0.9450000524520874
1753059310178,-4.095000267028809,-10.506000518798828,
1753059310195,-5.479050159454346,-10.671000480651855,2.4570000171661377
1753059310217,-4.819950103759766,-9.075000762939453,2.6010000705718994
1753059310235,-2.785950183868408,-7.114950180053711,1.0770000219345093
1753059310246,-0.6690000295639038,-7.228050231933594,0.9739500284194946
1753059310263,-0.859950065612793,-9.604050636291504,0.5689499974250793
1753059310283,-4.243950366973877,-11.265000343322754,0.06195000186562538
1753059310301,-7.33305025100708,-10.138050079345703,-0.2050500065088272
1753059310319,-6.937950134277344,-7.921950340270996,-0.24105000495910645
1753059310332,-5.9569501876831055,-9.972000122070312,1.2229501008987427
1753059310349,-5.233950138092041,-14.188950538635254,2.2159500122070312
1753059310366,,,0.8230500221252441
1753059310367,-4.291950225830078,-14.469000816345215,
1753059310383,,,0.4039500057697296
1753059310384,-4.1579999923706055,-12.624000549316406,
1753059310400,-4.189050197601318,-12.547050476074219,1.227000117301941
1753059310418,-3.1620001792907715,-13.396950721740723,0.5430000424385071
1753059310434,,,0.05505000427365303
1753059310435,-1.5370501279830933,-12.882000923156738,
1753059310452,-1.1860500574111938,-11.391000747680664,0.13095000386238098
1753059310469,-1.4490001201629639,-10.264050483703613,-0.9679500460624695
1753059310487,-1.2600001096725464,-9.373950004577637,-1.3150500059127808
1753059310504,-0.30705001950263977,-8.36400032043457,0.15105000138282776
1753059310527,0.9070500135421753,-8.5489501953125,2.2609500885009766
1753059310548,1.9429501295089722,-11.226000785827637,0.9739500284194946
1753059310555,4.008000373840332,-14.553000450134277,-0.6720000505447388
1753059310572,4.413000106811523,-15.459000587463379,-1.4850000143051147
1753059310589,2.8620002269744873,-12.943950653076172,-0.7750500440597534
1753059310607,,,1.5289500951766968
1753059310608,0.7920000553131104,-10.111050605773926,
1753059310628,-2.499000072479248,-8.506050109863281,4.03695011138916
1753059310640,-5.191050052642822,-7.635000228881836,4.015050411224365
1753059310658,-6.550950527191162,-6.5460004806518555,2.9449501037597656
1753059310675,-6.88800048828125,-5.952000141143799,2.754000186920166
1753059310692,-5.839950084686279,-5.94795036315918,2.55495023727417
1753059310709,-4.213050365447998,-6.027000427246094,1.579050064086914
1753059310726,,,0.41895002126693726
1753059310727,-2.9010000228881836,-5.755950450897217,
1753059310743,-1.2910500764846802,-6.034050464630127,-0.5260500311851501
1753059310760,,,-0.934950053691864
1753059310761,0.2560500204563141,-6.295050144195557,
1753059310778,1.6680001020431519,-6.3259501457214355,-0.5899500250816345
1753059310795,,,0.48795002698898315
1753059310796,2.448000192642212,-5.409000396728516,
1753059310829,,,1.6770000457763672
1753059310830,2.170950174331665,-4.231950283050537,2.577000141143799
1753059310848,,,4.113000392913818
1753059310849,-0.987000048160553,-4.509000301361084,
1753059310865,-2.014050006866455,-6.22005033493042,6.12600040435791
1753059310880,,,7.999050617218018
1753059310881,-5.086050033569336,-8.02500057220459,
1753059310898,,,7.935000419616699
1753059310899,-10.224000930786133,-9.724050521850586,
1753059310918,-15.555000305175781,-11.81505012512207,7.204950332641602
1753059310936,-17.167951583862305,-13.66200065612793,7.147050380706787
1753059310955,-15.634050369262695,-10.071000099182129,7.272000312805176
1753059310974,-12.301050186157227,-4.320000171661377,4.960050106048584
1753059310983,,,4.527000427246094
1753059310984,-9.508050918579102,-3.2290501594543457,
1753059311001,-5.8999505043029785,-9.610950469970703,5.013000011444092
1753059311018,-1.8220500946044922,-18.397951126098633,2.3830502033233643
1753059311035,3.781050205230713,-24.184051513671875,-0.04500000178813934
1753059311052,2.934000253677368,-15.225000381469727,1.4359500408172607
1753059311069,3.0390000343322754,-6.261000156402588,-1.0780500173568726
1753059311086,,,-1.842000126838684
1753059311087,1.9030500650405884,-1.7500500679016113,
1753059311103,,,-2.6890501976013184
1753059311104,0.3330000042915344,-2.659950017929077,
1753059311121,-2.6760001182556152,,-3.535950183868408
1753059311122,,-5.991000175476074,
1753059311139,-7.288050174713135,-9.21405029296875,-0.6760500073432922
1753059311208,,,1.8090001344680786
1753059311210,-6.735000133514404,,
1753059311211,-3.973050117492676,-12.720000267028809,
1753059311276,-1.0420500040054321,-5.962050437927246,2.2350001335144043
1753059311343,-4.335000038146973,,0.7030500173568726
1753059311344,-6.771000385284424,-8.818950653076172,
1753059311478,-2.8219501972198486,-7.405050277709961,1.8850500583648682
1753059311553,-8.447999954223633,-9.574950218200684,1.5000001192092896
1753059311626,-5.151000022888184,-12.45405101776123,-0.3679500222206116
1753059311681,-4.375050067901611,-11.394001007080078,1.957050085067749
1753059311756,-2.9950501918792725,-7.8670501708984375,-1.15500009059906
1753059311817,1.0939500331878662,-14.317950248718262,0.5410500168800354
1753059311890,-1.3099501132965088,-8.640000343322754,1.90500009059906
1753059311948,-6.1650004386901855,-5.706000328063965,3.0889501571655273
1753059311949,,-6.007050514221191,
1753059312016,,,0.032999999821186066
1753059312017,-3.2320501804351807,-6.106050491333008,
1753059312083,0.8470500111579895,-4.0980000495910645,1.5360000133514404
1753059312084,,-4.000050067901611,
1753059312150,,,6.523050308227539
1753059312151,-4.69605016708374,-6.9720001220703125,7.285950183868408
1753059312228,-15.226950645446777,-13.97295093536377,7.092000484466553
1753059312289,-8.056050300598145,-3.745950222015381,1.864050030708313
1753059312352,,,1.6219500303268433
1753059312353,,,0.3469500243663788
1753059312354,4.019999980926514,,
1753059312355,,-15.735000610351562,
1753059312425,-2.889000177383423,-5.059950351715088,-3.6409502029418945
1753059312488,-5.143950462341309,-9.994050025939941,1.5600000619888306
1753059312554,1.3620001077651978,-6.289950370788574,-0.3130500018596649
1753059312621,-5.815950393676758,-9.565950393676758,1.9330500364303589
1753059312689,-3.7129502296447754,-8.27400016784668,0.27300000190734863
1753059312758,-5.055000305175781,-7.495950222015381,-0.5380499958992004
1753059312759,,-11.752950668334961,
1753059312823,,,-0.49500003457069397
1753059312824,-2.845950126647949,-12.145051002502441,
1753059312890,,,0.31095001101493835
1753059312891,-3.4900500774383545,-9.211950302124023,
1753059312957,-0.2050500065088272,-10.576050758361816,0.3439500033855438
1753059313025,3.1330502033233643,-15.451951026916504,-0.43995001912117004
1753059313092,,,2.2870500087738037
1753059313093,-5.713050365447998,-5.680050373077393,2.4019501209259033
1753059313160,-5.25600004196167,-6.9310503005981445,2.6730000972747803
1753059313226,0.8089500665664673,-3.544950246810913,-0.8850000500679016
1753059313294,-3.117000102996826,-6.850050449371338,5.5849504470825195
1753059313374,-10.627950668334961,-11.87700080871582,7.353000164031982
1753059313433,-11.257050514221191,-1.8220500946044922,0.6169500350952148
1753059313498,,,2.308950185775757
1753059313499,3.9079501628875732,-21.41295051574707,2.5960500240325928
1753059313577,-0.9490500688552856,-3.280050039291382,-2.9280002117156982
1753059313634,-7.194000244140625,-11.707050323486328,2.7180001735687256
1753059313697,,,-0.6550500392913818
1753059313698,,,-0.21495001018047333
1753059313700,0.6580500602722168,-6.169950485229492,
1753059313773,-6.904950141906738,-9.682950019836426,0.33000001311302185
1753059313835,,,1.287000060081482
1753059313836,-1.7479500770568848,-7.693950176239014,0.8329500555992126
1753059313902,-6.676950454711914,-8.458050727844238,1.048050045967102
1753059313967,-6.048000335693359,-12.720000267028809,-0.5230500102043152
1753059314041,-6.739950180053711,-11.250000953674316,1.0530000925064087
1753059314101,-3.2890501022338867,-8.404950141906738,-0.05205000191926956
1753059314168,,,-0.9010500311851501
1753059314169,0.5460000038146973,-15.595951080322266,-2.3970000743865967
1753059314235,0.6079500317573547,-8.884050369262695,1.3159500360488892
1753059314303,-6.388050079345703,-6.433050155639648,2.139000177383423
1753059314378,,,0.21495001018047333
1753059314379,-2.947050094604492,-5.665050506591797,-0.33900001645088196
1753059314437,-0.9940500259399414,-3.1740002632141113,2.335050106048584
1753059314504,,,3.595950126647949
1753059314505,-4.947000026702881,-5.93595027923584,
1753059314572,-16.705951690673828,-15.069000244140625,7.786050319671631
1753059314642,-7.942950248718262,-0.5179499983787537,1.1239500045776367
1753059314706,,,2.8500001430511475
1753059314707,,,-0.3270000219345093
1753059314708,-0.6810000538825989,-19.255050659179688,
1753059314773,0.5940000414848328,-4.182000160217285,0.06405000388622284
1753059314841,-9.946050643920898,-11.149950981140137,3.0510001182556152
1753059314913,2.7109501361846924,-7.033950328826904,-0.361050009727478
1753059314975,,,0.20295001566410065
1753059314976,-6.474000453948975,-9.451050758361816,
1753059315117,-2.212050199508667,-6.421050071716309,1.0930500030517578
1753059315179,-6.699000358581543,-8.695050239562988,0.1189500093460083
1753059315257,-5.1220502853393555,-13.107000350952148,-0.3730500042438507
1753059315314,,,0.32505002617836
1753059315315,-6.144000053405762,-12.030000686645508,0.5689499974250793
1753059315387,-4.294050216674805,-7.3810505867004395,0.5209500193595886
1753059315449,-0.520050048828125,-12.010951042175293,-0.49500003457069397
1753059315513,,,0.5089499950408936
1753059315514,1.651050090789795,-10.88700008392334,
1753059315595,-5.995050430297852,-7.752000331878662,3.373950242996216
1753059315655,-4.914000034332275,-6.517050266265869,0.3660000264644623
1753059315718,0.22500000894069672,-3.7270500659942627,1.9450501203536987
1753059315784,,,2.433000087738037
1753059315785,-3.178950071334839,-4.311000347137451,
1753059315853,-13.495050430297852,-10.723950386047363,8.662050247192383
1753059315917,-10.968000411987305,,5.2260003089904785
1753059315918,-5.9569501876831055,-2.889000177383423,
1753059315986,0.34005001187324524,-16.85205078125,4.546050071716309
1753059316051,,,0.30105000734329224
1753059316052,-1.2720000743865967,-2.026050090789795,-0.9180000424385071
1753059316119,,,1.324950098991394
1753059316120,-10.675950050354004,-11.60205078125,2.416950225830078
1753059316194,3.0180001258850098,,0.1360500007867813
1753059316195,3.3960001468658447,-5.964000225067139,
1753059316254,-6.364050388336182,-10.324050903320312,0.11700000613927841
1753059316320,,,0.7680000066757202
1753059316321,-3.3580501079559326,-6.280050277709961,0.7150500416755676
1753059316388,-6.51900053024292,,1.5120000839233398
1753059316455,,,-0.5419500470161438
1753059316456,-6.253950119018555,-13.545001029968262,-0.5110500454902649
1753059316522,-7.084050178527832,-12.129000663757324,0.23205001652240753
1753059316590,-2.325000047683716,-8.080050468444824,0.06000000238418579
1753059316657,,,-1.516050100326538
1753059316658,0.25905001163482666,-16.03095054626465,
1753059316733,0.5550000071525574,-8.6850004196167,0.8659500479698181
1753059316791,,,2.5960500240325928
1753059316792,-6.439950466156006,-6.78000020980835,
1753059316859,,,-0.6430500149726868
1753059316860,-2.332050085067749,-5.686950206756592,
1753059316926,,,1.9519500732421875
1753059316927,-0.3720000088214874,-3.3010501861572266,
1753059317013,-6.397050380706787,-8.082000732421875,4.348050117492676
1753059317066,-14.914051055908203,-10.747950553894043,7.396050453186035
1753059317136,-8.97705078125,-2.8540501594543457,1.6459500789642334
1753059317197,0.08205000311136246,-18.826051712036133,3.559950113296509
1753059317270,-1.390950083732605,-4.777050018310547,-0.1879500150680542
1753059317338,-9.396000862121582,-11.3100004196167,2.8279502391815186
1753059317397,2.2039501667022705,-6.712950229644775,0.20295001566410065
1753059317472,-5.518950462341309,-9.580050468444824,0.19395001232624054
1753059317533,-3.069000244140625,-6.4930500984191895,1.1839500665664673
1753059317599,-7.216050148010254,-8.731050491333008,0.21000000834465027
1753059317666,,,-0.5899500250816345
1753059317667,-4.545000076293945,,
1753059317668,,-14.287050247192383,
1753059317738,-6.984000205993652,-11.359950065612793,0.3439500033855438
1753059317800,-4.105050086975098,-7.285050392150879,0.505050003528595
1753059317871,-1.363050103187561,-15.010050773620605,-0.7099500298500061
1753059317935,1.201050043106079,-9.766950607299805,1.1890500783920288
1753059318002,-7.168050289154053,,2.473950147628784
1753059318003,,-6.199050426483154,
1753059318069,,,0.1789500117301941
1753059318070,-4.183950424194336,-5.871000289916992,-0.739050030708313
1753059318137,,,1.6920000314712524
1753059318138,-0.3150000274181366,-3.1050002574920654,2.4120001792907715
1753059318204,-3.813000202178955,,3.5370001792907715
1753059318205,,-3.9970502853393555,
1753059318277,-14.386950492858887,-19.43400001525879,8.386950492858887
1753059318344,-9.630000114440918,1.519950032234192,0.7870500087738037
1753059318408,,,3.5650501251220703
1753059318409,-0.8580000400543213,-22.13595199584961,-0.43995001912117004
1753059318473,3.255000114440918,,-0.9610500335693359
1753059318474,,-2.848950147628784,
1753059318540,,,-0.10500000417232513
1753059318541,-15.433051109313965,-11.334000587463379,0.7680000066757202
1753059318674,,,0.04500000178813934
1753059318675,1.9270501136779785,-6.603000164031982,
1753059318744,-5.230050086975098,-8.982000350952148,-0.4540500342845917
1753059318809,-2.989950180053711,-7.053000450134277,0.6700500249862671
1753059318878,-6.957000255584717,-8.793000221252441,0.10005000233650208
1753059318960,-5.28000020980835,-9.706950187683105,-1.9399501085281372
