timestamp,AccX,AccY,AccZ
1752059883840,0.3405751883983612,5.011662483215332,12.602478981018066
1752059883911,-1.1629834175109863,4.324526786804199,7.404667377471924
1752059883971,-0.8289923667907715,4.171298027038574,9.519944190979004
1752059884037,-0.4626794755458832,4.243124008178711,8.946533203125
1752059884079,-1.9949685335159302,4.653729438781738,8.570643424987793
1752059884103,,,8.616133689880371
1752059884104,-1.2096704244613647,4.901529312133789,
1752059884173,-1.4419080018997192,4.769848346710205,8.225878715515137
1752059884242,-0.4686649739742279,4.012083530426025,8.625710487365723
1752059884304,,,7.841609001159668
1752059884306,-0.4315548539161682,4.137779235839844,
1752059884370,,,8.356362342834473
1752059884371,-0.7296329736709595,4.1210198402404785,
1752059884426,1.346139907836914,3.1872811317443848,9.06983470916748
1752059884427,-0.16579847037792206,2.8856115341186523,12.048221588134766
1752059884453,,3.7858314514160156,9.806051254272461
1752059884454,-1.2563573122024536,,
1752059884521,-0.7990648150444031,3.4865562915802,8.710704803466797
1752059884583,,3.9689879417419434,6.933009624481201
1752059884584,1.3509283065795898,2.5983073711395264,
1752059884588,-1.1881226301193237,2.7024552822113037,7.699153900146484
1752059884654,-0.6853402256965637,2.759916067123413,7.447762966156006
1752059884716,,,10.28010368347168
1752059884717,-1.4012064933776855,2.0644004344940186,
1752059884719,-1.4718354940414429,3.2986114025115967,12.59769058227539
1752059884788,-0.43754035234451294,4.897938251495361,5.8436479568481445
1752059884853,,,12.462418556213379
1752059884855,-0.7906851172447205,1.9734207391738892,
1752059884919,,,5.72633171081543
1752059884920,-1.7399860620498657,1.8489222526550293,7.173626899719238
1752059884986,-1.6442179679870605,1.856104850769043,13.939640998840332
1752059884998,,,11.49875259399414
1752059884999,0.20290859043598175,2.02848744392395,
1752059885052,0.6482301354408264,2.6629507541656494,10.337564468383789
1752059885120,,,10.396222114562988
1752059885121,-0.2735375463962555,2.3948001861572266,
1752059885183,-1.7483657598495483,3.1238346099853516,8.587403297424316
1752059885187,0.3345896899700165,2.477400302886963,9.241020202636719
1752059885254,-1.3329718112945557,2.5707740783691406,10.004770278930664
1752059885317,0.5500678420066833,4.0743327140808105,10.58656120300293
1752059885320,0.49619829654693604,5.4893059730529785,7.551910877227783
1752059885390,0.10833762586116791,4.6956281661987305,7.5447282791137695
1752059885454,0.9068039059638977,1.734000563621521,9.01476764678955
1752059885521,2.271498918533325,4.261080265045166,10.470442771911621
1752059885589,2.3493103981018066,4.630984783172607,3.2794578075408936
1752059885653,,4.640561580657959,7.694365501403809
1752059885654,1.3545196056365967,4.399944305419922,
1752059885720,1.5628151893615723,4.6489410400390625,10.525508880615234
1752059885787,,,8.052298545837402
1752059885788,5.126584529876709,4.092289447784424,8.258200645446777
1752059885855,5.279813289642334,4.687248229980469,8.037933349609375
1752059885920,,,6.52719259262085
1752059885921,4.805761337280273,5.01285982131958,5.853224754333496
1752059885989,1.9650410413742065,4.064755916595459,8.638877868652344
1752059886053,2.515707492828369,4.805761337280273,7.2119340896606445
1752059886121,2.3971943855285645,4.018068790435791,7.726687431335449
1752059886187,,,7.053916931152344
1752059886189,2.735974073410034,4.305373191833496,
1752059886229,3.8349125385284424,4.951807498931885,9.007585525512695
1752059886254,4.43705415725708,4.307767391204834,8.629301071166992
1752059886322,4.899135112762451,3.818153142929077,8.85794734954834
1752059886377,,,8.374319076538086
1752059886378,4.168903827667236,4.432265758514404,8.743025779724121
1752059886381,5.162497520446777,4.733935356140137,9.5223388671875
1752059886385,4.644152641296387,4.875193119049072,8.843582153320312
1752059886454,4.3640313148498535,4.948216438293457,7.518392086029053
1752059886521,,,8.750208854675293
1752059886522,3.9187095165252686,4.998494625091553,7.84998893737793
1752059886585,2.0667946338653564,4.589086055755615,8.683171272277832
1752059886587,0.557250440120697,3.867234230041504,9.442132949829102
1752059886654,,,8.895057678222656
1752059886655,-0.5716156363487244,3.383605480194092,
1752059886699,,,7.944559574127197
1752059886700,-0.4231751561164856,3.666121244430542,
1752059886770,-3.402759075164795,3.2423477172851562,8.506000518798828
1752059886837,-1.4957774877548218,4.507683277130127,8.091803550720215
1752059886901,-2.229600429534912,3.883993625640869,7.853579998016357
1752059886903,1.22642982006073,6.114192485809326,7.470507621765137
1752059886972,,5.461772441864014,7.371148586273193
1752059886973,0.41958385705947876,,
1752059887038,0.9068039059638977,5.749076843261719,7.26221227645874
1752059887105,,,10.581772804260254
1752059887106,-0.9271546006202698,3.909132719039917,
1752059887144,-0.7212532758712769,3.929483652114868,7.577049732208252
1752059887146,0.6230909824371338,4.183269023895264,10.70866584777832
1752059887170,0.3321954905986786,4.243124008178711,10.739789962768555
1752059887239,0.8254010081291199,4.950610637664795,8.684368133544922
1752059887306,-0.21966800093650818,4.316147327423096,9.248202323913574
1752059887373,-0.02454056777060032,4.6489410400390625,7.984064102172852
1752059887439,-0.39564183354377747,4.129399299621582,8.88907241821289
1752059887506,-0.03411737456917763,4.046799659729004,9.16081428527832
1752059887571,0.29149407148361206,4.8033671379089355,8.440159797668457
1752059887639,-1.0145429372787476,3.9498343467712402,8.397064208984375
1752059887640,-0.6278793811798096,,
1752059887677,,4.745906352996826,8.12173080444336
1752059887678,0.3274070918560028,,
1752059887706,-0.49380409717559814,4.259883403778076,8.636484146118164
1752059887771,,4.4526166915893555,9.135675430297852
1752059887772,0.21607670187950134,4.6956281661987305,
1752059887838,0.3669114112854004,4.368819713592529,8.217498779296875
1752059887907,0.5333084464073181,4.578312397003174,9.416994094848633
1752059887970,-0.21368250250816345,3.5691561698913574,10.464457511901855
1752059888039,-0.025737667456269264,4.550778865814209,7.8978729248046875
1752059888106,0.30705636739730835,4.153341293334961,9.528324127197266
1752059888172,-0.3800795078277588,3.861248731613159,9.481637001037598
1752059888239,0.1107318252325058,4.556764602661133,7.996035099029541
1752059888305,,,8.683171272277832
1752059888306,-0.03172317147254944,4.237138271331787,8.49283218383789
1752059888372,0.3561375141143799,4.464587688446045,9.1045503616333
1752059888439,-0.24361002445220947,4.161721229553223,9.120112419128418
1752059888505,,,8.467693328857422
1752059888506,-0.012569558806717396,4.292205333709717,
1752059888572,0.23523031175136566,4.373608112335205,8.304886817932129
1752059888639,,,9.171587944030762
1752059888640,-0.03172317147254944,4.128202438354492,
1752059888705,0.36092591285705566,4.302978992462158,9.043498039245605
1752059888772,-0.060453593730926514,4.0743327140808105,8.845976829528809
1752059888839,,,9.651625633239746
1752059888841,-0.08319851011037827,3.7882256507873535,
1752059888905,,,8.848370552062988
1752059888906,-0.0999579206109047,3.8971617221832275,
1752059888971,,,8.30249309539795
1752059888972,0.7236474752426147,4.557961463928223,8.268974304199219
1752059889039,1.184531331062317,4.664503574371338,7.999626636505127
1752059889105,,,8.571840286254883
1752059889106,2.078765630722046,4.926668643951416,
1752059889171,,,8.500014305114746
1752059889173,2.5348610877990723,5.350442409515381,
1752059889238,1.6741455793380737,5.096656799316406,4.567538261413574
1752059889304,1.8010382652282715,4.796184539794922,9.980828285217285
1752059889370,,5.083488941192627,7.727884769439697
1752059889371,2.181716203689575,4.510077476501465,
1752059889438,1.3988122940063477,4.458601951599121,8.751405715942383
1752059889504,1.3509283065795898,4.772242546081543,8.107365608215332
1752059889571,1.304241418838501,4.694430828094482,8.013991355895996
1752059889603,,,8.781332969665527
1752059889604,1.2000936269760132,4.477755546569824,8.353968620300293
1752059889638,,,8.191162109375
1752059889639,1.0456676483154297,4.525639533996582,
1752059889705,1.0169371366500854,4.4741644859313965,8.644864082336426
1752059889772,1.3856441974639893,4.689642429351807,8.399457931518555
1752059889838,1.1689690351486206,4.428674697875977,8.898649215698242
1752059889904,1.0348936319351196,4.4957122802734375,8.304886817932129
1752059889972,1.1366472244262695,4.577115058898926,8.538321495056152
1752059890038,0.7439981698989868,4.190451622009277,9.011177062988281
1752059890104,1.0085574388504028,4.4274773597717285,8.905831336975098
1752059890171,0.8445546627044678,4.489726543426514,7.905055522918701
1752059890214,1.8896236419677734,4.535216331481934,7.67042350769043
1752059890237,1.9171570539474487,4.794987678527832,10.10173511505127
1752059890305,1.9183541536331177,5.029619216918945,9.879075050354004
1752059890372,1.6813281774520874,4.586691856384277,7.890690326690674
1752059890438,-1.0444705486297607,2.0919337272644043,8.233060836791992
1752059890505,,,6.789357662200928
1752059890506,-2.982576847076416,0.41958385705947876,
1752059890522,2.1589713096618652,3.1884782314300537,13.035829544067383
1752059890570,2.8125884532928467,3.8971617221832275,10.28130054473877
1752059890638,,,7.4333977699279785
1752059890639,3.3740286827087402,4.450222492218018,
1752059890706,,,8.885480880737305
1752059890707,1.128267526626587,3.6278140544891357,
1752059890772,,,9.336788177490234
1752059890773,0.6625953316688538,3.3931822776794434,
1752059890839,0.9427168965339661,3.3919851779937744,8.805274963378906
1752059890906,0.4554968774318695,3.4362781047821045,8.307281494140625
1752059890972,,,9.873088836669922
1752059890973,0.444722980260849,3.230376720428467,
1752059891039,,,8.166023254394531
1752059891040,0.7667431235313416,3.8313212394714355,
1752059891106,1.0001777410507202,3.208828926086426,8.9680814743042
1752059891172,1.028908133506775,2.9909565448760986,10.453682899475098
1752059891239,,,9.01476764678955
1752059891240,-0.3621230125427246,3.868431329727173,
1752059891286,0.5392939448356628,3.4063503742218018,7.554305076599121
1752059891289,0.6434416770935059,2.473809003829956,9.553462982177734
1752059891306,1.4119805097579956,2.5061306953430176,10.56381607055664
1752059891372,2.5935189723968506,2.7670986652374268,10.033500671386719
1752059891440,1.2898762226104736,1.4742296934127808,7.355586051940918
1752059891502,2.297835111618042,-0.7499836683273315,8.407837867736816
1752059891506,3.9438488483428955,-0.03411737456917763,9.3427734375
1752059891573,5.934627532958984,0.4411316514015198,9.923367500305176
1752059891635,6.33445930480957,1.898003339767456,7.416638374328613
1752059891641,4.998494625091553,0.33099839091300964,8.679579734802246
1752059891706,,,8.110957145690918
1752059891707,6.5954270362854,0.7200561761856079,
1752059891773,5.143343925476074,-0.2795230448246002,11.520299911499023
1752059891798,,,12.09969711303711
1752059891799,4.632181644439697,-1.9003976583480835,
1752059891866,4.551976203918457,-2.7886464595794678,12.728175163269043
1752059891886,,,4.9135003089904785
1752059891890,,-5.0236334800720215,
1752059891891,2.6773159503936768,,
1752059891916,4.059967517852783,-1.370081901550293,1.912368655204773
1752059891947,2.6378116607666016,1.1749545335769653,-1.2515689134597778
1752059892014,10.00836181640625,3.3488895893096924,-12.34749698638916
1752059892077,16.133926391601562,7.780557155609131,-18.34856414794922
1752059892103,18.049287796020508,3.559579372406006,-3.2866404056549072
1752059892112,6.554725646972656,1.0492589473724365,-4.6058454513549805
1752059892179,7.007229804992676,-0.3585317134857178,-4.16531229019165
1752059892188,7.26221227645874,1.5580267906188965,-5.125387191772461
1752059892215,,,-4.896740913391113
1752059892216,11.495161056518555,3.8337154388427734,
1752059892253,3.868431329727173,0.5692214369773865,-2.320580005645752
1752059892317,17.880496978759766,6.4817023277282715,-6.098630428314209
1752059892382,,-0.025737667456269264,-4.853645324707031
1752059892383,12.120047569274902,,
1752059892450,4.302978992462158,-8.76457405090332,-3.603872060775757
1752059892516,,,-4.745906352996826
1752059892517,7.70274543762207,-1.3329718112945557,-4.219182014465332
1752059892582,7.27418327331543,-0.5093663930892944,-4.812943935394287
1752059892650,10.386645317077637,0.8577227592468262,-4.4490251541137695
1752059892716,,,-4.698022365570068
1752059892717,8.430583000183105,4.422688961029053,-4.487332344055176
1752059892782,11.198280334472656,4.35804557800293,-5.751471042633057
1752059892845,,,-4.686051368713379
1752059892846,6.38114595413208,-4.328118324279785,-4.918288707733154
1752059892852,6.184821605682373,6.2853779792785645,-4.156932830810547
1752059892902,,1.2216414213180542,-3.9462430477142334
1752059892903,5.547964096069336,-3.2746694087982178,
1752059892969,11.880627632141113,0.03651157766580582,-5.650914669036865
1752059893036,8.883087158203125,-1.0432734489440918,-4.726752758026123
1752059893100,,,-5.248688697814941
1752059893101,9.318831443786621,-0.4686649739742279,
1752059893162,,0.9127894043922424,-4.439448356628418
1752059893163,7.726687431335449,,
1752059893232,6.522404193878174,0.8960300087928772,-4.947019100189209
1752059893297,11.068992614746094,-2.5995044708251953,-7.396287441253662
1752059893364,11.566987037658691,-1.1318588256835938,-10.762535095214844
1752059893433,7.204751491546631,-1.5819687843322754,-6.1752448081970215
1752059893498,7.295731067657471,-0.7320271730422974,-6.862380504608154
1752059893563,8.538321495056152,-0.70090252161026,-4.79857873916626
1752059893631,10.657190322875977,-1.1103110313415527,-8.622118949890137
1752059893697,1.3844470977783203,2.9071593284606934,-4.896740913391113
1752059893762,,,-6.627748966217041
1752059893763,7.108983516693115,-0.6769605278968811,
1752059893830,9.39784049987793,0.2256535142660141,-7.415441036224365
1752059893897,10.003573417663574,-0.9139865040779114,-10.410587310791016
1752059893962,11.238981246948242,0.8361749649047852,-5.98610258102417
1752059894030,4.791396141052246,2.5576059818267822,-2.782660961151123
1752059894097,7.834426403045654,-1.5292962789535522,-7.3005194664001465
1752059894162,9.00279712677002,-0.19572599232196808,-5.562329292297363
1752059894227,7.2789716720581055,-0.0975637212395668,-5.796960830688477
1752059894295,,,-6.819284915924072
1752059894297,7.49923849105835,-0.17657238245010376,-5.703587055206299
1752059894364,,,-6.9246296882629395
1752059894365,,,-6.52719259262085
1752059894366,7.451354026794434,0.08200141042470932,
1752059894428,7.571064472198486,-0.06165069341659546,-6.536769390106201
1752059894495,7.920617580413818,-0.018555063754320145,-6.316502571105957
1752059894561,6.9677252769470215,-0.0520738884806633,-6.68520975112915
1752059894627,,,-6.800131320953369
1752059894628,6.86716890335083,0.345363587141037,-5.435436248779297
1752059894695,7.83921480178833,-0.2867056429386139,-7.245452880859375
1752059894762,,,-6.407482147216797
1752059894763,7.207145690917969,0.26396074891090393,-6.057929039001465
1752059894828,7.044340133666992,0.28311434388160706,-6.445789337158203
1752059894895,8.09778881072998,0.8529343605041504,-6.230311393737793
1752059894961,,,-6.206369400024414
1752059894962,7.8966755867004395,0.3166331648826599,-6.081871032714844
1752059895028,,2.3708581924438477,-5.80414342880249
1752059895029,6.3931169509887695,2.7252001762390137,
1752059895098,,,-5.2678422927856445
1752059895099,9.46727180480957,0.4124012291431427,-5.847239017486572
1752059895162,8.78731918334961,-0.7942764163017273,-6.9006876945495605
1752059895228,,,-5.559935092926025
1752059895229,7.705139636993408,0.9534908533096313,-5.789778232574463
1752059895296,,1.2838906049728394,-5.684433460235596
1752059895297,7.21672248840332,-0.5021837949752808,
1752059895361,7.4322004318237305,0.436343252658844,-6.3500213623046875
1752059895429,6.862380504608154,0.4602852761745453,-6.9677252769470215
1752059895496,5.598242282867432,0.3405751883983612,-7.551910877227783
1752059895562,5.9525837898254395,0.14903905987739563,-7.360374450683594
1752059895629,6.637325763702393,-0.06165069341659546,-7.0587053298950195
1752059895696,,0.19213469326496124,-6.986878871917725
1752059895697,8.00680923461914,,
1752059895762,6.192004203796387,-0.09516951441764832,-7.331644058227539
1752059895829,6.642114162445068,0.053270988166332245,-7.346009254455566
1752059895895,7.077858924865723,0.28790274262428284,-6.8575921058654785
1752059895962,,,-7.638102054595947
1752059895963,6.024410247802734,-0.8182184100151062,
1752059896029,7.302913665771484,0.5752069354057312,-6.646902561187744
1752059896097,7.982867240905762,-0.3824737071990967,-6.570288181304932
1752059896162,7.120954513549805,-0.1909375786781311,-6.881534099578857
1752059896229,,,-7.149684906005859
1752059896230,6.828861713409424,-0.353743314743042,
1752059896296,6.7474589347839355,-0.23403321206569672,-6.77618932723999
1752059896362,6.436212539672852,-0.0520738884806633,-7.044340133666992
1752059896428,,,-7.063493728637695
1752059896429,6.52719259262085,-0.14784196019172668,
1752059896499,,,-7.049128532409668
1752059896500,7.4322004318237305,-0.5692214369773865,-6.9006876945495605
1752059896563,6.819284915924072,-0.29628247022628784,-7.202357292175293
1752059896631,6.68520975112915,-0.008978256024420261,-7.077858924865723
1752059896697,6.74267053604126,-0.018555063754320145,-7.2789716720581055
1752059896889,6.177639007568359,-0.8804676532745361,-7.4752960205078125
1752059896890,6.464942932128906,,
1752059896894,6.5942301750183105,-0.05686229094862938,-7.298125267028809
1752059896952,6.278195381164551,-0.353743314743042,-7.542334079742432
1752059897020,6.570288181304932,-0.3010708689689636,-7.369951248168945
1752059897085,,,-7.508815288543701
1752059897086,6.2398881912231445,-0.14784196019172668,-7.527968883514404
1752059897153,6.110601425170898,-0.25318682193756104,-7.53275728225708
1752059897221,6.402693748474121,-0.353743314743042,-7.379528045654297
1752059897286,6.824073314666748,-0.5261258482933044,-7.09222412109375
1752059897353,,-0.19572599232196808,-7.772177219390869
1752059897354,6.249464988708496,,
1752059897420,,,-7.283760070800781
1752059897421,5.909488201141357,0.10115502029657364,-7.436988830566406
1752059897486,,,-7.1257429122924805
1752059897487,6.637325763702393,-0.4255693554878235,
1752059897554,6.378751754760742,-0.11432313174009323,-7.508815288543701
1752059897555,6.225522994995117,,
1752059897621,6.407482147216797,-0.076015904545784,-7.18320369720459
1752059897686,,,-7.063493728637695
1752059897687,6.689998149871826,-0.3776853084564209,-7.106589317321777
1752059897754,6.531980991363525,-0.41120412945747375,-7.470507621765137
1752059897820,,,-7.173626899719238
1752059897821,6.441000938415527,-0.3489548861980438,-7.1257429122924805
1752059897887,6.608595371246338,0.12509703636169434,-7.231087684631348
1752059897954,6.637325763702393,-0.23403321206569672,-7.068282127380371
1752059898021,7.0587053298950195,-0.38726213574409485,-7.250241279602051
1752059898101,,,-7.082647323608398
1752059898102,7.044340133666992,-0.166995570063591,-7.063493728637695
1752059898153,6.077082633972168,-0.4878185987472534,-7.595006465911865
1752059898220,7.389104843139648,0.5704185366630554,-6.689998149871826
1752059898286,,,-6.9677252769470215
1752059898287,6.656479358673096,0.01975216343998909,
1752059898353,,,-6.95814847946167
1752059898354,7.293336868286133,-0.09038111567497253,-6.8144965171813965
1752059898420,,,-7.2119340896606445
1752059898421,6.948571681976318,0.03890577703714371,-6.938994884490967
1752059898486,,,-7.068282127380371
1752059898487,7.164050102233887,0.03890577703714371,-6.795342922210693
1752059898553,,,-6.881534099578857
1752059898554,6.7474589347839355,-0.018555063754320145,
1752059898621,7.302913665771484,0.048482585698366165,-6.565499782562256
1752059898686,,,-6.5942301750183105
1752059898687,7.0587053298950195,0.058059390634298325,-6.733093738555908
1752059898753,7.197568893432617,-0.076015904545784,-6.953360080718994
1752059898822,6.986878871917725,0.1825578808784485,-6.977302074432373
1752059900894,,0.1538274586200714,-7.164050102233887
1752059900895,6.8336501121521,0.25917232036590576,
1752059900898,6.263830184936523,0.2495955228805542,-7.781754016876221
1752059900965,5.89512300491333,0.10115502029657364,-7.83921480178833
1752059901029,5.938218593597412,0.5991489887237549,-7.911040782928467
1752059901095,,,-7.982867240905762
1752059901096,5.545569896697998,0.6805518269538879,-8.040328025817871
1752059901162,,,-7.575852870941162
1752059901163,5.856815814971924,0.5560533404350281,-7.360374450683594
1752059901349,,,-8.025962829589844
1752059901350,8.389881134033203,2.1362264156341553,
1752059901355,5.559935092926025,1.5328876972198486,-6.340444564819336
1752059901424,6.493673324584961,1.5855600833892822,-7.0587053298950195
1752059901490,6.292560577392578,1.5424644947052002,-7.1257429122924805
1752059901557,,2.097919225692749,-6.819284915924072
1752059901558,6.019621849060059,,
1752059901745,,2.5240871906280518,-6.8144965171813965
1752059901746,6.757035732269287,1.614290475845337,
1752059901813,,,-7.7195048332214355
1752059901814,6.326079368591309,2.5959131717681885,
1752059901881,,,-7.575852870941162
1752059901882,6.919841289520264,1.4562731981277466,
1752059901948,5.492897033691406,2.7252001762390137,-6.24467658996582
1752059902014,6.848015308380127,0.26396074891090393,-7.729081630706787
1752059902081,4.664503574371338,0.12509703636169434,-7.422623634338379
1752059902126,5.947795391082764,-0.14784196019172668,-7.542334079742432
1752059902193,6.56071138381958,-0.7224503755569458,-7.599794864654541
1752059902260,8.265382766723633,0.579995334148407,-6.713940143585205
1752059902326,,,-7.039551734924316
1752059902327,8.87829875946045,-0.7846996188163757,-7.53275728225708
1752059902394,6.101024627685547,-1.225232720375061,-8.107365608215332
1752059902460,5.411494255065918,0.383670836687088,-7.585429668426514
1752059902461,5.459378242492676,,
1752059902527,3.7499184608459473,-2.4654293060302734,-7.408258438110352
1752059902593,5.660491466522217,-1.9434932470321655,-8.33720874786377
1752059902661,5.449801445007324,-4.6920366287231445,-7.0587053298950195
1752059902726,,,-6.819284915924072
1752059902727,4.4490251541137695,-5.530007362365723,
1752059902792,7.53275728225708,-4.826112270355225,-5.559935092926025
1752059902793,7.360374450683594,,
1752059902860,,,-8.969278335571289
1752059902861,5.2247467041015625,1.269525408744812,-5.603030681610107
1752059902926,,,-5.7993550300598145
1752059902927,6.570288181304932,-7.828441143035889,-7.518392086029053
1752059902963,11.684303283691406,-9.00160026550293,-8.169614791870117
1752059903006,-0.0017956512747332454,-5.740696907043457,-9.09377670288086
1752059903021,-2.6785130500793457,-5.144540786743164,-19.30025863647461
1752059903062,-4.943428039550781,-3.868431329727173,-7.966107368469238
1752059903126,9.88625717163086,-3.377619981765747,-10.393828392028809
1752059903198,,,-11.854290962219238
1752059903199,3.4362781047821045,1.8249802589416504,-9.527127265930176
1752059903260,,,-8.76337718963623
1752059903261,,,-7.8966755867004395
1752059903262,11.19588565826416,-1.7016788721084595,
1752059903328,1.6047136783599854,-6.499659061431885,-11.631629943847656
1752059903392,,2.9071593284606934,-0.06524199992418289
1752059903393,-8.553884506225586,,
1752059903459,-6.655282020568848,-1.8477251529693604,-4.789001941680908
1752059903520,-7.998429298400879,0.12749123573303223,5.32889461517334
1752059903527,-4.581903457641602,-0.3274070918560028,-2.911947727203369
1752059903593,-4.507683277130127,1.5424644947052002,0.4926069974899292
1752059903661,-1.9650410413742065,1.2647370100021362,-0.4124012291431427
1752059903728,-6.272210121154785,0.5057750940322876,-6.589441776275635
1752059903793,,,2.719214677810669
1752059903794,-14.225748062133789,3.6804866790771484,
1752059903860,,,-25.32167625427246
1752059903861,-1.1749545335769653,-1.1174936294555664,-37.27113723754883
1752059903871,,-0.9594763517379761,-10.736199378967285
1752059903872,-9.260173797607422,,
1752059903930,-6.5499372482299805,-4.565144062042236,-6.666056156158447
1752059903994,0.4794389009475708,-0.06165069341659546,-13.937246322631836
1752059904061,-0.6602011322975159,0.9989806413650513,-7.367557048797607
1752059904128,,,-13.398550987243652
1752059904130,-8.553884506225586,-5.386355400085449,-8.339603424072266
1752059904183,-10.782885551452637,-6.490082263946533,-1.9518729448318481
1752059904234,8.480860710144043,6.948571681976318,-22.336105346679688
1752059904289,,,0.4734533727169037
1752059904290,-11.8626708984375,-2.360084295272827,
1752059904356,-3.0376434326171875,1.1737574338912964,-5.694010257720947
1752059904709,-9.049484252929688,-1.9961656332015991,-6.745064735412598
1752059904730,,,-2.409165382385254
1752059904731,-17.94154930114746,-3.451840400695801,
1752059904800,,,-10.599729537963867
1752059904801,-3.5835213661193848,-1.467047095298767,-9.5007905960083
1752059904866,-22.169708251953125,-2.056020736694336,-5.818508625030518
1752059904923,-9.413402557373047,1.3293805122375488,-7.891887187957764
1752059904987,,-3.667318344116211,-7.4106526374816895
1752059904988,-9.087791442871094,,
1752059905053,-2.1805191040039062,-3.715202569961548,-8.485649108886719
1752059905119,,,-5.648520469665527
1752059905120,-2.4869771003723145,-7.375936985015869,
1752059905189,,,-13.614029884338379
1752059905190,-3.8804023265838623,-1.0073603391647339,
1752059905301,-4.816535472869873,-3.02327823638916,-6.553528785705566
1752059905307,-5.6209869384765625,-3.2986114025115967,-7.4537482261657715
1752059905371,-4.941033840179443,1.6932991743087769,-3.575141668319702
1752059905438,-4.352060317993164,-7.684788703918457,-8.15764331817627
1752059905504,-4.993706226348877,6.017227649688721,-9.381080627441406
1752059905571,-2.077568531036377,-3.0208840370178223,-9.797672271728516
1752059905637,,,-8.610147476196289
1752059905638,-11.503540992736816,-10.126874923706055,-11.363479614257812
1752059905704,-8.235455513000488,-3.7463271617889404,-6.859986305236816
1752059905890,,,-9.5007905960083
1752059905891,-4.680065631866455,2.720411777496338,
1752059905901,-6.803722858428955,-8.082226753234863,-8.813654899597168
1752059905970,-2.9490580558776855,-2.542043685913086,-6.323685169219971
1752059906036,,,-6.232705593109131
1752059906037,-3.0424318313598633,6.182427406311035,
1752059906102,-3.3848025798797607,1.614290475845337,-7.355586051940918
1752059906169,,,-8.00680923461914
1752059906170,-3.5930981636047363,1.8441338539123535,-8.356362342834473
1752059906237,,,-10.020332336425781
1752059906238,-5.180453777313232,-0.4878185987472534,
1752059906303,,,-11.248558044433594
1752059906304,-7.112574577331543,-0.7583633661270142,-11.464035987854004
1752059906370,,,-10.961254119873047
1752059906371,-7.088632583618164,-0.619499683380127,-10.8319673538208
1752059906437,,,-9.6803560256958
1752059906438,-6.133346080780029,-0.9690531492233276,-9.582193374633789
1752059906503,-4.603451251983643,-1.002571940422058,-9.213486671447754
1752059906571,,,-8.413823127746582
1752059906572,-3.162141799926758,-0.18136078119277954,
1752059906637,,,-7.695562839508057
1752059906638,-2.2188265323638916,-0.6721721291542053,-7.6333136558532715
1752059906650,-2.7479450702667236,-0.8349778652191162,-8.33720874786377
1752059906703,-2.8197710514068604,-0.9953893423080444,-8.55268669128418
1752059906769,-2.9251158237457275,-0.4878185987472534,-8.5287446975708
1752059906836,,,-9.151237487792969
1752059906837,-3.6337995529174805,-0.03770867735147476,-9.395445823669434
1752059906903,-4.045602321624756,0.24480712413787842,-9.055469512939453
1752059906969,,,-9.668384552001953
1752059906970,-4.581903457641602,0.14425064623355865,
1752059907037,-4.897938251495361,1.1210849285125732,-9.476848602294922
1752059907102,,,-8.691550254821777
1752059907103,-5.094262599945068,1.896806240081787,
1752059907169,-4.826112270355225,1.303044319152832,-8.476072311401367
1752059907236,,,-8.179191589355469
1752059907237,-4.395155906677246,0.8960300087928772,
1752059907271,-3.7630865573883057,0.5129576921463013,-8.126519203186035
1752059907339,-3.820547342300415,0.25917232036590576,-8.318055152893066
1752059907405,-3.997718334197998,0.42676645517349243,-8.432976722717285
1752059907471,-5.099050998687744,0.9343371987342834,-9.462483406066895
1752059907538,,,-9.37629222869873
1752059907539,-4.993706226348877,1.058835744857788,
1752059907606,-3.6290111541748047,0.24480712413787842,-9.03631591796875
1752059907672,,-0.023343466222286224,-8.638877868652344
1752059907673,-2.824559450149536,,
1752059907739,,-0.34416648745536804,-8.739435195922852
1752059907740,-2.6426000595092773,0.048482585698366165,
1752059907806,-3.494935989379883,-0.004189853090792894,-8.883087158203125
1752059909901,-5.19481897354126,0.718859076499939,-9.108141899108887
1752059909902,,-1.4407109022140503,-8.969278335571289
1752059909904,-4.3424835205078125,-1.3736732006072998,-7.853579998016357
1752059909968,,,-7.762600421905518
1752059909969,-3.8971617221832275,-1.028908133506775,-8.217498779296875
1752059910036,-3.7056257724761963,-0.9570821523666382,-8.950124740600586
1752059910102,-4.840477466583252,-1.8237831592559814,-8.480860710144043
1752059910169,-4.783016681671143,-1.4407109022140503,-8.590993881225586
1752059910362,,,-9.141660690307617
1752059910363,-4.2515034675598145,-1.6944962739944458,
1752059910368,-3.7391445636749268,-1.7423802614212036,-9.232640266418457
1752059910437,-4.510077476501465,-1.4550760984420776,-8.145672798156738
1752059910503,-5.371990203857422,-1.0097545385360718,-7.9876556396484375
1752059910570,-5.017648220062256,-0.32022446393966675,-8.624512672424316
1752059910746,-4.66330623626709,-0.5452794432640076,-8.590993881225586
1752059910752,-4.57232666015625,0.07242459803819656,-9.247005462646484
1752059910820,,,-8.844779968261719
1752059910821,-4.672883033752441,0.6518214344978333,-8.849568367004395
1752059910886,,,-8.734646797180176
1752059910887,-4.510077476501465,1.0396820306777954,
1752059910953,-4.419097900390625,1.4419080018997192,-8.399457931518555
1752059911020,,,-8.600570678710938
1752059911021,-4.553173065185547,1.7579425573349,
1752059911087,-4.519654273986816,2.212841033935547,-8.289324760437012
1752059911153,,,-8.270171165466309
1752059911154,-4.466981887817383,2.16495680809021,
1752059911221,-4.591480255126953,2.097919225692749,-8.385092735290527
1752059911287,-4.428674697875977,1.4993687868118286,-8.255805969238281
1752059911354,,,-8.025962829589844
1752059911355,-4.601057052612305,1.2647370100021362,
1752059911421,-5.166088581085205,1.1354501247406006,-8.327631950378418
1752059911487,,1.0013748407363892,-8.959701538085938
1752059911488,-5.563526153564453,,
1752059911554,,,-9.5007905960083
1752059911555,-5.065532207489014,0.9678560495376587,
1752059911620,-4.739920616149902,1.3605051040649414,-8.543109893798828
1752059911687,-4.586691856384277,1.326986312866211,-8.27974796295166
1752059911753,,,-8.667608261108398
1752059911754,-4.639364242553711,1.2072762250900269,-8.447341918945312
1752059911822,-4.835689067840576,1.389235496520996,-8.284536361694336
1752059911886,,,-8.385092735290527
1752059911887,-5.4246625900268555,1.0732009410858154,-8.322843551635742
1752059911954,,,-8.720281600952148
1752059911955,-5.122992992401123,0.9247604012489319,-8.758588790893555
1752059912020,-4.993706226348877,0.982221245765686,-8.543109893798828
1752059912021,-4.735132217407227,,
1752059912086,-4.409521102905273,1.3078327178955078,-9.907805442810059
1752059912153,-5.304952621459961,-0.23403321206569672,-8.27974796295166
1752059912220,-4.984129428863525,2.6868927478790283,-8.437765121459961
1752059912286,-4.730343818664551,1.997362732887268,-8.562263488769531
1752059912354,,0.9726444482803345,-8.672396659851074
1752059912355,-4.337695121765137,1.245583415031433,
1752059912421,,,-8.78731918334961
1752059912422,-4.00729513168335,0.07242459803819656,-8.744223594665527
1752059912438,,0.7332242727279663,-9.007585525512695
1752059912439,-4.591480255126953,,
1752059912506,-4.423886299133301,1.2982559204101562,-8.993220329284668
1752059912543,-4.802170276641846,0.7140706777572632,-9.132083892822266
1752059912573,-4.730343818664551,0.9534908533096313,-8.318055152893066
1752059912642,-4.174889087677002,1.2168530225753784,-7.7865424156188965
1752059912707,-4.601057052612305,0.9295487999916077,-8.476072311401367
1752059914046,-3.959411144256592,0.7092822790145874,-8.203133583068848
1752059914060,-7.57944393157959,-6.468534469604492,-0.4124012291431427
1752059914066,-3.0639796257019043,1.5233107805252075,-1.5544354915618896
1752059914131,,-2.1996726989746094,-2.0045454502105713
1752059914132,-9.171587944030762,,
1752059914176,,,-12.922104835510254
1752059914177,-13.414113998413086,-3.267486810684204,
1752059914197,-9.190741539001465,1.810615062713623,7.04793119430542
1752059914262,8.64127254486084,9.634865760803223,-12.402563095092773
1752059914328,-16.040552139282227,-3.7894227504730225,2.4414870738983154
1752059914329,1.5759832859039307,2.0404584407806396,4.646546840667725
1752059914396,-2.3457190990448,0.2663549482822418,-1.8584990501403809
1752059914461,,,1.028908133506775
1752059914462,-11.568183898925781,-4.941033840179443,2.2260091304779053
1752059914529,-11.790844917297363,-3.8564603328704834,-2.9933507442474365
1752059914595,,-0.9283517003059387,7.373542785644531
1752059914596,-12.43727970123291,,
1752059914661,-6.906673431396484,3.6158430576324463,6.6361284255981445
1752059914681,-10.186729431152344,1.1306617259979248,2.233191728591919
1752059914701,-10.557830810546875,0.7906851172447205,2.9945478439331055
1752059914766,-10.486004829406738,0.5871779918670654,3.8133647441864014
1752059914767,-7.074267387390137,0.7835025191307068,3.2196028232574463
1752059914833,-13.093290328979492,-0.7032967209815979,6.564302444458008
1752059914900,,2.6198551654815674,-4.034828186035156
1752059914901,-7.0790557861328125,5.698798656463623,
1752059914947,-3.2770636081695557,2.495356798171997,12.964003562927246
1752059914957,-11.786056518554688,2.1769278049468994,-0.2783259451389313
1752059914975,,2.296638011932373,-0.25917232036590576
1752059914976,-10.304045677185059,,
1752059914993,-8.383895874023438,3.6373908519744873,4.002506732940674
1752059915060,-5.7095723152160645,5.715558052062988,7.88350772857666
1752059915111,-6.061520099639893,2.1290438175201416,3.5667619705200195
1752059915167,-9.59057331085205,3.1286230087280273,8.448538780212402
1752059915174,,,3.4398694038391113
1752059915175,-9.248202323913574,3.0172927379608154,
1752059915194,-13.697826385498047,3.3668460845947266,5.5563435554504395
1752059915213,-11.383830070495605,3.9641995429992676,7.730278968811035
1752059915230,,4.772242546081543,6.047154903411865
1752059915231,-1.7615338563919067,,
1752059915250,2.630629062652588,2.3349452018737793,3.0340521335601807
1752059915271,-3.2207999229431152,-0.13946224749088287,1.1976994276046753
1752059915292,,,0.8912416100502014
1752059915294,-8.340800285339355,0.22924481332302094,
1752059915311,-8.735843658447266,1.6873136758804321,2.9993362426757812
1752059915330,-10.477624893188477,1.8022353649139404,2.5456349849700928
1752059915353,-12.398972511291504,1.1414356231689453,2.429516077041626
1752059915371,-10.274118423461914,2.7551276683807373,5.015254020690918
1752059915394,,,5.547964096069336
1752059915395,-7.4800848960876465,3.9019501209259033,
1752059915410,,,4.360439777374268
1752059915411,-7.019200801849365,3.4614171981811523,
1752059915430,-9.323619842529297,2.117072820663452,3.267486810684204
1752059915453,,3.5871126651763916,1.3114240169525146
1752059915455,-9.784503936767578,,
1752059915481,-8.415019989013672,3.425503969192505,3.069965124130249
1752059915491,,,5.026028156280518
1752059915492,-6.810905456542969,3.5715503692626953,
1752059915511,-4.420294761657715,2.9311013221740723,6.091447830200195
1752059915530,-5.653308868408203,0.6003460884094238,3.8349125385284424
1752059915552,-7.329249858856201,1.7232266664505005,3.153762102127075
1752059915571,-7.9744873046875,1.6430208683013916,4.377199172973633
1752059915591,-8.537124633789062,2.8628666400909424,5.948992729187012
1752059915611,-7.114968776702881,1.368884801864624,3.0436289310455322
1752059915631,-9.269750595092773,-1.0324994325637817,-1.4993687868118286
1752059915651,-11.823166847229004,-0.33937808871269226,1.1127052307128906
1752059915671,-9.934141159057617,0.22086510062217712,6.539163589477539
1752059915691,-10.94569206237793,-0.37409400939941406,4.348468780517578
1752059915711,-10.089764595031738,-1.8010382652282715,3.3297359943389893
1752059915731,-7.294534206390381,-0.1646013706922531,3.248333215713501
1752059915751,-7.8332295417785645,-0.4231751561164856,2.4438812732696533
1752059915771,-13.397354125976562,-1.8740613460540771,0.010175357572734356
1752059915791,-11.486781120300293,-1.4047977924346924,-3.508104085922241
1752059915811,-14.16828727722168,-2.7730841636657715,-1.2348095178604126
1752059915831,,,5.290587425231934
1752059915834,-12.358270645141602,-1.6490063667297363,
1752059915851,-11.837532043457031,2.4151508808135986,9.062651634216309
1752059915871,-9.00160026550293,4.731541156768799,7.713519096374512
1752059915891,-13.581707954406738,4.578312397003174,0.9630676507949829
1752059915919,-13.441646575927734,1.8656816482543945,-1.2084733247756958
1752059915931,-6.68520975112915,2.097919225692749,6.713940143585205
1752059915951,-4.138976097106934,1.4622586965560913,12.839505195617676
1752059915971,-9.208698272705078,-1.7363947629928589,5.672462463378906
1752059915991,-10.739789962768555,-1.734000563621521,4.757877349853516
1752059916010,,1.184531331062317,1.6454150676727295
1752059916011,-9.326014518737793,,
1752059916031,-15.093646049499512,1.3006501197814941,1.6765397787094116
1752059916050,,4.140173435211182,5.565920352935791
1752059916051,-8.553884506225586,,
1752059916071,-2.431910276412964,3.733159065246582,6.2614359855651855
1752059916098,2.258330821990967,1.79146146774292,5.045181751251221
1752059916117,-3.1920695304870605,-0.6171054840087891,1.7735048532485962
1752059916132,-3.757101058959961,-0.0999579206109047,3.357269287109375
1752059916155,-2.5240871906280518,-0.3561375141143799,5.122992992401123
1752059916170,,-0.8242039084434509,5.3576250076293945
1752059916171,-1.3449428081512451,,
1752059916195,-15.430031776428223,-2.4223334789276123,0.1909375786781311
1752059916214,,,-2.1266496181488037
1752059916215,-16.344615936279297,3.1489737033843994,
1752059916234,,,6.044760704040527
1752059916235,-15.236101150512695,5.672462463378906,
1752059916255,-13.433267593383789,6.7714009284973145,5.960963726043701
1752059916275,-11.912949562072754,4.2550950050354,4.17728328704834
1752059916294,-9.324816703796387,3.9630024433135986,3.9665937423706055
1752059916315,-10.330381393432617,2.433107376098633,5.45339298248291
1752059916336,-12.152369499206543,1.8154034614562988,3.336918592453003
1752059916354,-12.068572044372559,2.6629507541656494,1.2084733247756958
1752059916375,-9.832387924194336,0.9510966539382935,1.105522632598877
1752059916395,-8.362347602844238,-0.4207809567451477,-0.17537526786327362
1752059916415,-6.384737491607666,-3.02327823638916,-1.1402385234832764
1752059916434,,,-2.588730573654175
1752059916435,-9.540295600891113,-4.615422248840332,
1752059916454,-6.921038627624512,-3.911526918411255,-1.8417396545410156
1752059916475,-4.323329925537109,-2.340930700302124,-1.391629695892334
1752059916495,,,2.8652608394622803
1752059916496,-5.534795761108398,-1.2611457109451294,
1752059916515,-8.022371292114258,1.8417396545410156,8.036736488342285
1752059916534,-11.750143051147461,1.590348482131958,4.4071269035339355
1752059916555,-9.303269386291504,6.0411696434021,7.129333972930908
1752059916574,,,11.98716926574707
1752059916575,-5.309741020202637,10.480019569396973,
1752059916595,-7.773374557495117,5.50007963180542,6.573879241943359
1752059916615,-4.368819713592529,3.5942952632904053,6.818088054656982
1752059916634,-4.969764232635498,3.2327709197998047,8.40544319152832
1752059916654,,,6.83245325088501
1752059916655,-4.656123638153076,3.050811529159546,
1752059916674,,,-1.2144588232040405
1752059916675,-13.55776596069336,-4.912303447723389,
1752059916694,-13.040617942810059,-2.9538464546203613,-2.138620615005493
1752059916715,-6.858789443969727,3.795408248901367,6.523601055145264
1752059916734,,3.3261446952819824,7.665635108947754
1752059916735,-10.031106948852539,,
1752059916754,-12.118850708007812,2.0476410388946533,6.952163219451904
1752059916774,-8.307281494140625,2.3301568031311035,5.7311201095581055
1752059916794,,2.0620062351226807,5.570708751678467
1752059916795,-8.134899139404297,,
1752059916814,,,6.717531204223633
1752059916815,-7.160458564758301,2.8161797523498535,
1752059916834,-6.918644428253174,3.7475242614746094,4.962581634521484
1752059916854,-8.841188430786133,2.1697452068328857,2.3792378902435303
1752059916874,,,5.312135219573975
1752059916875,-10.172364234924316,1.324592113494873,
1752059916894,-10.241796493530273,-0.41120412945747375,6.116586685180664
1752059916913,-7.617751121520996,-2.7024552822113037,2.0033483505249023
1752059916934,-6.341641902923584,-2.501342296600342,5.072714805603027
1752059916954,-7.749432563781738,-0.19812019169330597,6.849212646484375
1752059916974,-6.933009624481201,1.568800687789917,6.0184245109558105
1752059916994,-8.077438354492188,0.1322796493768692,6.442198276519775
1752059917014,-7.033565998077393,2.76350736618042,6.590638637542725
1752059917035,-5.470152378082275,2.3540987968444824,6.458957672119141
1752059917054,-4.308964729309082,1.5640122890472412,7.799710750579834
1752059917074,-1.3281834125518799,1.324592113494873,6.533177852630615
1752059917094,,,1.4191631078720093
1752059917095,-5.592256546020508,0.6278793811798096,
1752059917115,-18.12111473083496,2.32297420501709,4.2060136795043945
1752059917135,,,8.4293851852417
1752059917136,-13.77324390411377,4.951807498931885,
1752059917154,-10.701482772827148,2.2487540245056152,7.591414928436279
1752059917174,-7.275380611419678,0.21607670187950134,5.111021995544434
1752059917194,-3.178901195526123,-2.3792378902435303,4.002506732940674
1752059917214,-8.084620475769043,-3.291428804397583,1.7591396570205688
1752059917234,-9.051877975463867,1.913565754890442,16.507421493530273
1752059917254,-12.221800804138184,-10.146028518676758,-12.943653106689453
1752059917274,-12.073360443115234,-9.674370765686035,12.56177806854248
1752059917293,,,4.155735492706299
1752059917294,-7.091026782989502,-8.359953880310059,
1752059917313,,,0.4902127981185913
1752059917314,-11.177928924560547,-5.360019207000732,
1752059917334,-6.638522624969482,-3.667318344116211,4.675277233123779
1752059917354,-1.6609774827957153,-2.0655975341796875,2.3289597034454346
1752059917374,-7.016806602478027,-2.211643934249878,9.312846183776855
1752059917393,,,4.84287166595459
1752059917394,-4.146158695220947,-0.8206126093864441,
1752059917414,-1.4000093936920166,0.28550854325294495,5.381567001342773
1752059917434,-3.133411407470703,0.8936358094215393,8.726266860961914
1752059917454,-8.089408874511719,-1.1893197298049927,9.482834815979004
1752059917473,,,7.404667377471924
1752059917474,-8.771756172180176,-0.9427168965339661,
1752059917493,-6.763021469116211,0.49380409717559814,7.92899751663208
1752059917513,,,8.946533203125
1752059917514,-7.071873188018799,-0.5979518890380859,
1752059917533,,,9.171587944030762
1752059917534,-6.64091682434082,-0.2148796021938324,
1752059917554,,,8.666411399841309
1752059917555,-3.734356164932251,1.7028759717941284,
1752059917573,-7.7661919593811035,-0.1885433793067932,9.420584678649902
1752059917593,-6.576273441314697,-0.5883750915527344,9.013570785522461
1752059917613,-1.8213889598846436,2.478597402572632,8.077438354492188
1752059917633,0.3190273642539978,4.08510684967041,9.525930404663086
1752059917653,0.6757634282112122,7.0802531242370605,9.549872398376465
1752059917673,0.7978677153587341,6.419453144073486,6.341641902923584
1752059917693,-0.15502455830574036,2.4139537811279297,5.688024520874023
1752059917713,-1.3186066150665283,-0.9786299467086792,7.12693977355957
1752059917733,-2.7742812633514404,-4.229955673217773,4.522048473358154
1752059917753,-13.404537200927734,-7.71591329574585,4.220378875732422
1752059917773,-13.251307487487793,-6.178835868835449,7.160458564758301
1752059917793,-11.352705955505371,-3.3895909786224365,9.358335494995117
1752059917813,-10.198700904846191,-0.8924387097358704,7.8547773361206055
1752059917833,-6.95695161819458,-2.6880898475646973,3.708019971847534
1752059917853,,-6.152499675750732,1.9243396520614624
1752059917854,-9.379883766174316,,
1752059917873,-7.193977355957031,-1.732803463935852,4.826112270355225
1752059917893,-5.68084192276001,-1.0528502464294434,3.9211037158966064
1752059917913,,,4.373608112335205
1752059917914,-7.905055522918701,-3.643376350402832,
1752059917933,-8.996811866760254,-4.277839660644531,5.348048210144043
1752059917953,-9.123703956604004,-1.7423802614212036,6.013636112213135
1752059917973,-5.551555156707764,2.3684639930725098,8.108562469482422
1752059917993,-4.275445461273193,3.733159065246582,6.952163219451904
1752059918013,-6.114192485809326,0.9798270463943481,6.231508255004883
1752059918033,-6.937798023223877,-1.4981716871261597,7.086238384246826
1752059918053,-5.060743808746338,0.4554968774318695,8.7885160446167
1752059918073,-4.328118324279785,3.2830491065979004,9.504382133483887
1752059918093,-6.16686487197876,2.0596120357513428,8.513182640075684
1752059918113,-5.340865612030029,-0.3585317134857178,8.213907241821289
1752059918133,-7.615356922149658,-1.4335283041000366,7.0790557861328125
1752059918153,-6.978499412536621,-0.41120412945747375,6.624157428741455
1752059918173,-6.097433090209961,0.08439560979604721,7.249044418334961
1752059918193,,-1.445499300956726,6.997653007507324
1752059918194,-5.54437255859375,,
1752059918213,,,7.284957408905029
1752059918214,-6.248267650604248,-0.03531447425484657,
1752059918233,-5.340865612030029,0.8337807655334473,7.680000305175781
1752059918252,,,7.778162956237793
1752059918253,-5.551555156707764,-0.028131870552897453,
1752059918272,-6.0639142990112305,0.5057750940322876,8.03194808959961
1752059918292,-6.315305709838867,4.520851135253906,8.240243911743164
1752059918312,-6.365583896636963,8.339603424072266,8.735843658447266
1752059918332,-6.705560207366943,5.234323501586914,6.727108001708984
1752059918352,-5.616198539733887,2.1697452068328857,7.423820972442627
1752059918372,-6.006453514099121,0.12270283699035645,8.510788917541504
1752059918392,-6.176441669464111,-3.0567970275878906,9.243413925170898
1752059918412,-4.107851505279541,-6.583456039428711,6.554725646972656
1752059918432,-3.9905357360839844,-5.707178115844727,5.400720596313477
1752059918452,-5.656899929046631,7.09222412109375,4.689642429351807
1752059918472,,,5.549160957336426
1752059918473,-7.909843921661377,8.282142639160156,
1752059918492,,4.523245334625244,3.0807390213012695
1752059918493,-6.446986675262451,,
1752059918512,,,3.6314053535461426
1752059918513,-9.789292335510254,2.478597402572632,
1752059918587,-14.156315803527832,-11.290456771850586,5.728725910186768
1752059918652,,,3.1453824043273926
1752059918653,-5.230731964111328,-3.0376434326171875,4.16531229019165
1752059918818,,,5.412691593170166
1752059918819,-7.457339763641357,-1.5652093887329102,
1752059918822,,,5.257068157196045
1752059918823,-8.297704696655273,-1.4311341047286987,
1752059918888,-8.49402904510498,-1.5077484846115112,5.66887092590332
1752059918954,,,5.22833776473999
1752059918955,-7.426215171813965,-0.5596446394920349,
1752059919020,,,7.000047206878662
1752059919021,-6.83245325088501,-2.2212207317352295,
1752059920116,,,5.290587425231934
1752059920117,,0.656609833240509,5.7311201095581055
1752059920118,-7.205948352813721,-1.5508441925048828,
1752059920182,-7.761403560638428,-0.9091981053352356,5.89392614364624
1752059920248,,,5.659294128417969
1752059920249,-8.163629531860352,-1.0720038414001465,
1752059925091,-8.24503231048584,-0.9953893423080444,5.917868137359619
1752059925092,-7.000047206878662,-2.1493945121765137,6.190806865692139
1752059925093,,-0.262763649225235,6.803722858428955
1752059925094,-7.67042350769043,-1.7854759693145752,6.2865753173828125
1752059925138,,-1.6801310777664185,6.243479251861572
1752059925139,-7.818864345550537,,
1752059925155,-7.550713539123535,-1.5077484846115112,6.133346080780029
1752059925174,-7.205948352813721,-1.325789213180542,6.267421722412109
1752059925194,-7.0575079917907715,-1.2731167078018188,6.573879241943359
1752059925214,-6.92343282699585,-1.3210008144378662,6.779780864715576
1752059925234,-6.741473197937012,-1.2204443216323853,6.779780864715576
1752059925254,-6.621763229370117,-1.0336965322494507,6.827664852142334
1752059925274,,,6.928221225738525
1752059925275,-6.727108001708984,-0.9427168965339661,
1752059925294,-6.846818447113037,-0.8421604633331299,6.875548839569092
1752059925314,-6.746262073516846,-0.6075286865234375,6.717531204223633
1752059925334,-6.6361284255981445,-0.4495113790035248,6.765415668487549
1752059925354,-6.616974830627441,-0.4926069974899292,6.952163219451904
1752059925374,-6.727108001708984,-0.5452794432640076,6.961740016937256
1752059925394,-6.693589210510254,-0.4878185987472534,6.880337238311768
1752059925414,-6.669647216796875,-0.3728969097137451,6.95695161819458
1752059925434,,,6.995258808135986
1752059925435,-6.86597204208374,-0.31543606519699097,
1752059925454,-7.0144124031066895,-0.34416648745536804,6.918644428253174
1752059925474,-6.851606845855713,-0.3298012912273407,6.899490833282471
1752059925494,-6.712742805480957,-0.26755204796791077,7.019200801849365
1752059925514,,-0.27234044671058655,7.148487567901611
1752059925515,-6.765415668487549,,
1752059925534,-6.789357662200928,-0.4255693554878235,7.105391979217529
1752059925554,-6.669647216796875,-0.4878185987472534,6.95695161819458
1752059925574,,-0.3824737071990967,7.062296390533447
1752059925575,-6.688800811767578,,
1752059925594,-6.827664852142334,-0.41120412945747375,7.225101947784424
1752059925615,-6.842030048370361,-0.4926069974899292,7.124545574188232
1752059925634,-6.660070419311523,-0.39205053448677063,7.019200801849365
1752059925654,-6.597821235656738,-0.24361002445220947,7.114968776702881
1752059925674,-6.813299655914307,-0.3106476664543152,7.292140007019043
1752059925694,-6.870760440826416,-0.4207809567451477,7.2107367515563965
1752059925714,-6.573879241943359,-0.36332011222839355,6.995258808135986
1752059925734,-6.42543888092041,-0.25318682193756104,7.08144998550415
1752059925755,-6.679224014282227,-0.3585317134857178,7.325658798217773
1752059925774,-6.937798023223877,-0.5309142470359802,7.17242956161499
1752059925794,,,6.770204067230225
1752059925795,-6.83245325088501,-0.4926069974899292,
1752059925814,,-0.3585317134857178,6.741473197937012
1752059925815,-6.7031660079956055,,
1752059925834,-6.880337238311768,-0.38726213574409485,7.105391979217529
1752059925854,-7.153275966644287,-0.5404910445213318,7.062296390533447
1752059925874,,-0.5069721937179565,6.564302444458008
1752059925875,-7.033565998077393,,
1752059925895,,-0.27712884545326233,6.540360450744629
1752059925896,-6.870760440826416,,
1752059925914,-7.1006035804748535,-0.3010708689689636,6.971316814422607
1752059925934,,,7.0144124031066895
1752059925935,-7.354389190673828,-0.48303020000457764,
1752059925954,-7.110180377960205,-0.5117605924606323,6.6361284255981445
1752059925974,,-0.34416648745536804,6.5499372482299805
1752059925975,-6.674435615539551,,
1752059925994,,-0.24839842319488525,6.918644428253174
1752059925995,-6.679224014282227,,
1752059926014,-6.980893611907959,-0.3250128924846649,7.04793119430542
1752059926034,,-0.34416648745536804,6.7941460609436035
1752059926035,-6.9042792320251465,,
1752059926054,,-0.14784196019172668,6.707954406738281
1752059926055,-6.535572052001953,,
1752059926075,-6.578667640686035,-0.11911153793334961,7.091026782989502
1752059926094,,,7.234679222106934
1752059926095,-7.009624004364014,-0.3968389332294464,
1752059926114,,-0.4878185987472534,6.798934459686279
1752059926115,-7.129333972930908,,
1752059926134,-6.918644428253174,-0.3058592677116394,6.535572052001953
1752059926154,,-0.24839842319488525,6.875548839569092
1752059926155,-6.909067630767822,,
1752059926175,-7.191583156585693,-0.3824737071990967,7.2107367515563965
1752059926194,,-0.444722980260849,7.009624004364014
1752059926195,-7.148487567901611,,
1752059926214,,,6.842030048370361
1752059926215,-6.818088054656982,-0.22445641458034515,
1752059926234,,,7.201159954071045
1752059926235,-6.784569263458252,-0.028131870552897453,
1752059926254,,-0.12389993667602539,7.469310760498047
1752059926255,-7.052719593048096,,
1752059926274,,,7.17242956161499
1752059926275,-7.009624004364014,-0.2148796021938324,
1752059926294,-6.564302444458008,-0.05686229094862938,6.899490833282471
1752059926314,,,7.148487567901611
1752059926315,-6.444592475891113,0.14425064623355865,
1752059926334,,,7.426215171813965
1752059926335,-6.808511257171631,0.06763619929552078,
1752059926355,-6.961740016937256,-0.0520738884806633,7.234679222106934
1752059926374,,0.048482585698366165,6.899490833282471
1752059926375,-6.722319602966309,,
1752059926394,,,7.038354396820068
1752059926395,-6.684012413024902,0.12509703636169434,
1752059926414,-7.038354396820068,-0.03770867735147476,7.316082000732422
1752059926434,,,7.062296390533447
1752059926435,-7.191583156585693,-0.17178396880626678,
1752059926454,,0.005386953707784414,6.693589210510254
1752059926455,-6.813299655914307,,
1752059926474,,,6.9473748207092285
1752059926475,-6.492476463317871,0.28311434388160706,
1752059926494,,,7.36396598815918
1752059926495,-6.588244438171387,0.24001872539520264,
1752059926514,,0.1538274586200714,7.311293601989746
1752059926515,-6.660070419311523,,
1752059926534,,,7.1006035804748535
1752059926535,-6.296152114868164,0.28790274262428284,
1752059926554,,,7.378331184387207
1752059926555,-6.061520099639893,0.37888240814208984,
1752059926574,,,7.727884769439697
1752059926575,-6.377554893493652,0.2064998894929886,
1752059926594,,0.058059390634298325,7.517194747924805
1752059926595,-6.664858818054199,,
1752059926614,,,7.148487567901611
1752059926615,-6.454169273376465,0.1825578808784485,
1752059926634,,,7.263409614562988
1752059926635,-6.3296709060668945,0.3214215636253357,
1752059926654,,,7.459733963012695
1752059926655,-6.631340026855469,0.1538274586200714,
1752059926674,,-0.03770867735147476,7.263409614562988
1752059926675,-6.966528415679932,,
1752059926694,,,6.995258808135986
1752059926695,-6.875548839569092,0.03411737456917763,
1752059926714,,,7.158064365386963
1752059926715,-6.7510504722595215,0.22086510062217712,
1752059926734,,,7.541136741638184
1752059926735,-6.8611836433410645,0.2256535142660141,
1752059926754,,,7.531559944152832
1752059926755,-6.8611836433410645,0.14425064623355865,
1752059926775,-6.626551628112793,0.25917232036590576,7.220313549041748
1752059926795,,,7.196371555328369
1752059926796,-6.502053260803223,0.42676645517349243,
1752059926815,,0.3214215636253357,7.431003570556641
1752059926816,-6.5930328369140625,,
1752059926835,-6.822876453399658,0.17298106849193573,7.445368766784668
1752059926855,-6.798934459686279,0.13946224749088287,7.249044418334961
1752059926874,,,7.186794757843018
1752059926875,-6.5499372482299805,0.16819266974925995,
1752059926895,-6.324882507324219,0.19692309200763702,7.416638374328613
1752059926914,,,7.593809127807617
1752059926915,-6.372766494750977,0.19213469326496124,
1752059926935,-6.454169273376465,0.23523031175136566,7.450157165527344
1752059926954,,,7.3017168045043945
1752059926955,-6.363189697265625,0.37888240814208984,
1752059926975,-6.3967084884643555,0.4411316514015198,7.445368766784668
1752059926994,,,7.517194747924805
1752059926995,-6.525995254516602,0.35015198588371277,
1752059927015,-6.554725646972656,0.28790274262428284,7.39748477935791
1752059927035,-6.382343292236328,0.292691171169281,7.191583156585693
1752059927055,-6.209960460662842,0.3214215636253357,7.225101947784424
1752059927074,,,7.3687543869018555
1752059927075,-6.181230068206787,0.31184476613998413,
1752059927095,-6.123769283294678,0.3597288131713867,7.483675956726074
1752059927114,,,7.641693115234375
1752059927115,-6.008847713470459,0.4076128304004669,
1752059927135,-5.917868137359619,0.3645172119140625,7.780557155609131
1752059927155,-5.879560947418213,0.3214215636253357,7.7470383644104
1752059927175,-5.9753289222717285,0.30705636739730835,7.699153900146484
1752059927195,-5.994482517242432,0.292691171169281,7.632116317749023
1752059927215,-5.922656536102295,0.383670836687088,7.6752119064331055
1752059927235,-5.86040735244751,0.4076128304004669,7.785345554351807
1752059927255,-5.903502941131592,0.37888240814208984,7.7470383644104
1752059927275,-5.970540523529053,0.30705636739730835,7.70394229888916
1752059927295,-5.9753289222717285,0.25917232036590576,7.732673168182373
1752059927315,-5.970540523529053,0.2064998894929886,7.866748332977295
1752059927335,-5.994482517242432,0.17298106849193573,7.976881504058838
1752059927355,-5.9322333335876465,0.18734627962112427,7.909843921661377
1752059927375,-5.788581371307373,0.23523031175136566,7.89547872543335
1752059927395,-5.678447723388672,0.24480712413787842,8.058284759521484
1752059927415,-5.716754913330078,0.14425064623355865,8.254609107971191
1752059927435,-5.826888561248779,0.06763619929552078,8.3120698928833
1752059927455,-5.836465358734131,0.01496376097202301,8.18757152557373
1752059927475,-5.793369770050049,-0.09516951441764832,8.173206329345703
1752059927495,-5.812523365020752,-0.22445641458034515,8.288127899169922
1752059927515,-5.922656536102295,-0.2388216257095337,8.18757152557373
1752059927535,-5.937021732330322,-0.0999579206109047,8.053496360778809
1752059927555,-5.8651957511901855,0.005386953707784414,8.149264335632324
1752059927575,-5.7311201095581055,5.985504249110818E-4,8.24503231048584
1752059927595,-5.678447723388672,0.005386953707784414,8.235455513000488
1752059927615,-5.530007362365723,0.12030863761901855,8.192359924316406
1752059927635,-5.3576250076293945,0.3214215636253357,8.130110740661621
1752059927655,-5.242702960968018,0.46507367491722107,8.043919563293457
1752059927675,-5.261856555938721,0.5033808946609497,8.000823974609375
1752059927695,-5.352836608886719,0.383670836687088,7.972093105316162
1752059927715,-5.582679748535156,0.12509703636169434,7.924209117889404
1752059927736,-5.72633171081543,-0.07122749835252762,7.83801794052124
1752059927755,-5.793369770050049,-0.09038111567497253,7.756615161895752
1752059927775,-5.869984149932861,-0.13826514780521393,7.684788703918457
1752059927795,-6.114192485809326,-0.2148796021938324,7.622539520263672
1752059927815,,-0.3058592677116394,7.517194747924805
1752059927816,-6.233902454376221,,
1752059927835,-6.224325656890869,-0.3250128924846649,7.464522361755371
1752059927855,-6.3296709060668945,-0.3010708689689636,7.450157165527344
1752059927875,-6.401496887207031,-0.2867056429386139,7.450157165527344
1752059927895,-6.449380874633789,-0.3489548861980438,7.536348342895508
1752059927915,-6.377554893493652,-0.39205053448677063,7.584232330322266
1752059927935,-6.406285285949707,-0.3824737071990967,7.569867134094238
1752059927955,-6.253056526184082,-0.32022446393966675,7.517194747924805
1752059927975,-6.253056526184082,-0.22924481332302094,7.526771545410156
1752059927995,-6.219537258148193,-0.2867056429386139,7.651269912719727
1752059928015,-6.253056526184082,-0.4255693554878235,7.70394229888916
1752059928035,-6.205172061920166,-0.5117605924606323,7.684788703918457
1752059928055,-6.157288074493408,-0.4734533727169037,7.636904716491699
1752059928075,-6.023212909698486,-0.4495113790035248,7.584232330322266
1752059928095,-5.913079738616943,-0.4686649739742279,7.660846710205078
1752059928115,-5.908291339874268,-0.5740098357200623,7.924209117889404
1752059928135,-5.774216175079346,-0.641047477722168,8.163629531860352
1752059928155,-5.673659324645996,-0.6314706802368164,8.225878715515137
1752059928175,-5.520430564880371,-0.6123170852661133,8.249820709228516
1752059928195,-5.625775337219238,-0.47824180126190186,8.177994728088379
1752059928215,-5.563526153564453,-0.2867056429386139,8.053496360778809
1752059928235,,-0.19572599232196808,8.144475936889648
1752059928236,-5.601833343505859,,
1752059928255,-5.582679748535156,-0.3010708689689636,8.163629531860352
1752059928275,-5.692812919616699,-0.3298012912273407,8.106168746948242
1752059928295,-5.874772548675537,-0.2388216257095337,8.000823974609375
1752059928315,-5.874772548675537,-0.12868833541870117,7.7470383644104
1752059928335,,,7.603385925292969
1752059928336,-5.898714542388916,-0.008978256024420261,
1752059928355,,0.053270988166332245,7.7230963706970215
1752059928356,-5.7311201095581055,,
1752059928375,-5.937021732330322,0.03411737456917763,7.871536731719971
1752059928395,,5.985504249110818E-4,7.866748332977295
1752059928396,-5.946598529815674,,
1752059928415,,0.07721300423145294,7.8763251304626465
1752059928416,-6.008847713470459,,
1752059928435,-6.147711277008057,0.2064998894929886,7.814075946807861
1752059928455,-6.214748859405518,0.3166331648826599,7.70394229888916
1752059928475,-6.3967084884643555,0.4507084786891937,7.67042350769043
1752059928495,-6.147711277008057,0.6135141849517822,7.732673168182373
1752059928515,,0.7667431235313416,7.8332295417785645
1752059928516,-6.023212909698486,,
1752059928535,-5.86040735244751,0.8960300087928772,7.852383136749268
1752059928555,,,7.799710750579834
1752059928556,-5.630563735961914,1.006163239479065,
1752059934091,,1.0732009410858154,7.742249965667725
1752059934092,-5.72633171081543,-1.9291280508041382,6.588244438171387
1752059934093,-7.215525150299072,,5.855618953704834
1752059934094,,-0.8948329091072083,5.994482517242432
1752059934095,-7.512406349182129,,
1752059934142,-8.383895874023438,-0.7990648150444031,5.812523365020752
1752059934157,-7.220313549041748,-1.2970588207244873,5.812523365020752
1752059934177,-7.5219831466674805,-1.6992846727371216,5.630563735961914
1752059934197,-7.732673168182373,-2.0392613410949707,5.530007362365723
1752059934217,-7.8763251304626465,-2.2020668983459473,5.54437255859375
1752059934237,-7.842806339263916,-2.163759708404541,5.611410140991211
1752059934257,-7.632116317749023,-1.9195512533187866,5.95138692855835
1752059934277,-7.584232330322266,-1.7423802614212036,6.39192008972168
1752059934297,-7.493252754211426,-1.713649868965149,6.281786918640137
1752059934317,-7.038354396820068,-1.6992846727371216,5.960963726043701
1752059934337,,,5.980117321014404
1752059934338,-6.612186431884766,-1.5316904783248901,
1752059934357,-6.530783653259277,-1.632246971130371,5.989694118499756
1752059934377,-7.019200801849365,-2.0392613410949707,6.339247703552246
1752059934397,-7.909843921661377,-2.3983914852142334,6.655282020568848
1752059934417,-8.201936721801758,-2.8149826526641846,6.162076473236084
1752059934437,,-2.719214677810669,6.104615688323975
1752059934438,-7.713519096374512,,
1752059934457,-7.0144124031066895,-2.3936030864715576,6.770204067230225
1752059934477,-6.722319602966309,-2.3792378902435303,7.148487567901611
1752059934497,-7.076661586761475,-2.470217704772949,7.512406349182129
1752059934518,-7.5650787353515625,-2.561197280883789,7.617751121520996
1752059934537,,,6.822876453399658
1752059934538,-7.5219831466674805,-2.3936030864715576,
1752059934557,-7.023989200592041,-1.9674352407455444,6.4828996658325195
1752059934577,-6.7941460609436035,-1.7375918626785278,7.023989200592041
1752059934597,-6.9042792320251465,-1.9051860570907593,7.009624004364014
1752059934617,,,7.028777599334717
1752059934618,-7.244256019592285,-2.235585927963257,
1752059934637,,-2.3313539028167725,7.119757175445557
1752059934638,-7.5219831466674805,,
1752059934657,-6.961740016937256,-2.115875720977783,6.559514045715332
1752059934677,-6.430227279663086,-1.876455545425415,6.39192008972168
1752059934697,-6.827664852142334,-1.7423802614212036,6.8372416496276855
1752059934717,,-1.8285715579986572,6.789357662200928
1752059934718,-7.1006035804748535,,
1752059934737,,-1.9243396520614624,6.578667640686035
1752059934738,-7.033565998077393,,
1752059934757,-6.937798023223877,-1.732803463935852,6.583456039428711
1752059934777,-6.353612899780273,-1.5939397811889648,6.272210121154785
1752059934798,-6.008847713470459,-1.5316904783248901,6.138134479522705
1752059934817,-6.3296709060668945,-1.589151382446289,6.650493621826172
1752059934837,-6.569090843200684,-1.833359956741333,6.621763229370117
1752059934857,-6.760627269744873,-1.790264368057251,6.3296709060668945
1752059934877,-6.971316814422607,-1.6992846727371216,6.631340026855469
1752059934897,,-1.7088614702224731,6.51641845703125
1752059934898,-6.918644428253174,,
1752059934917,-6.971316814422607,-1.6466121673583984,6.272210121154785
1752059934937,,-1.6849194765090942,6.755838871002197
1752059934938,-7.320870399475098,,
1752059934957,-7.421426773071289,-1.833359956741333,7.076661586761475
1752059934977,,-1.9482816457748413,7.052719593048096
1752059934978,-7.474099159240723,,
1752059934997,,-1.8620903491973877,7.3017168045043945
1752059934998,-7.593809127807617,,
1752059935017,,,7.009624004364014
1752059935018,-6.937798023223877,-1.6178817749023438,
1752059935037,,-1.1725603342056274,6.602609634399414
1752059935038,-6.114192485809326,,
1752059935057,-6.190806865692139,-1.0911574363708496,7.052719593048096
1752059935077,,-1.2970588207244873,7.263409614562988
1752059935078,-6.320094108581543,,
1752059935097,-6.473322868347168,-1.445499300956726,6.813299655914307
1752059935117,,-1.6083049774169922,6.7941460609436035
1752059935118,-6.961740016937256,,
1752059935137,-7.033565998077393,-1.6226701736450195,6.770204067230225
1752059935157,,-1.589151382446289,6.30094051361084
1752059935158,-6.7510504722595215,,
1752059935177,,-1.6466121673583984,6.885125637054443
1752059935178,-6.933009624481201,,
1752059935197,,,7.617751121520996
1752059935198,-7.3687543869018555,-1.9003976583480835,
1752059935217,,,7.076661586761475
1752059935218,-7.1676411628723145,-1.9387048482894897,
1752059935237,,,6.655282020568848
1752059935238,-6.770204067230225,-1.7711106538772583,
1752059935257,-6.444592475891113,-1.6609774827957153,6.760627269744873
1752059935277,,-1.6178817749023438,6.736684799194336
1752059935278,-6.16686487197876,,
1752059935297,,-1.857301950454712,6.798934459686279
1752059935298,-6.39192008972168,,
1752059935317,,-2.09672212600708,6.674435615539551
1752059935318,-6.660070419311523,,
1752059935337,-6.545148849487305,-2.072780132293701,6.224325656890869
1752059935357,,-2.0632033348083496,6.358401298522949
1752059935358,-6.535572052001953,,
1752059935378,-6.813299655914307,-2.0919337272644043,6.631340026855469
1752059935397,-6.952163219451904,-2.010530948638916,6.468534469604492
1752059935417,-6.942586421966553,-1.9387048482894897,6.454169273376465
1752059935437,,,6.674435615539551
1752059935438,-6.937798023223877,-1.8812439441680908,
1752059935457,,,6.913856029510498
1752059935458,-6.966528415679932,-1.8956091403961182,
1752059935477,,-1.7950527667999268,7.023989200592041
1752059935478,-7.028777599334717,,
1752059935497,,,6.937798023223877
1752059935498,-6.961740016937256,-1.6370353698730469,
1752059935517,,,6.913856029510498
1752059935518,-6.822876453399658,-1.6609774827957153,
1752059935537,,,7.0144124031066895
1752059935538,-6.803722858428955,-1.7471686601638794,
1752059935557,,,6.889914035797119
1752059935558,,-1.8429367542266846,
1752059935559,-6.961740016937256,,
1752059935577,-7.062296390533447,-1.833359956741333,6.669647216796875
1752059935597,,-1.909974455833435,6.616974830627441
1752059935598,-7.086238384246826,,
1752059935617,,-2.0440497398376465,6.602609634399414
1752059935618,-7.028777599334717,,
1752059935638,-7.186794757843018,-2.139817714691162,6.679224014282227
1752059935658,-7.517194747924805,-2.211643934249878,6.650493621826172
1752059935677,,,6.545148849487305
1752059935678,-7.713519096374512,-2.2164323329925537,
1752059935697,,,6.554725646972656
1752059935698,-7.636904716491699,-2.2020668983459473,
1752059935717,,-2.206855535507202,6.559514045715332
1752059935718,-7.205948352813721,,
1752059935738,-6.870760440826416,-2.1254525184631348,6.511630058288574
1752059935757,,,6.511630058288574
1752059935758,-6.765415668487549,-2.0632033348083496,
1752059935777,,,6.573879241943359
1752059935778,-6.736684799194336,-2.058414936065674,
1752059935797,,-2.0440497398376465,6.621763229370117
1752059935798,-6.9904704093933105,,
1752059935817,,,6.5499372482299805
1752059935818,-7.277774810791016,-2.072780132293701,
1752059935838,,,6.406285285949707
1752059935839,-7.407061576843262,-2.058414936065674,
1752059935857,,,6.39192008972168
1752059935858,-7.48846435546875,-1.9578584432601929,
1752059935878,-7.445368766784668,-1.8429367542266846,6.39192008972168
1752059935897,-7.296928405761719,-1.6466121673583984,6.099827289581299
1752059935918,-7.2586212158203125,-1.4838064908981323,5.793369770050049
1752059935938,-7.39748477935791,-1.5939397811889648,6.080673694610596
1752059935958,-7.378331184387207,-1.8716671466827393,6.684012413024902
1752059935978,-6.86597204208374,-2.010530948638916,6.818088054656982
1752059935997,,,6.851606845855713
1752059935998,-6.257844924926758,-1.9243396520614624,
1752059936018,-6.511630058288574,-1.7615338563919067,7.253832817077637
1752059936038,-7.028777599334717,-1.4838064908981323,7.1006035804748535
1752059936057,,,6.525995254516602
1752059936058,-6.92343282699585,-1.368884801864624,
1752059936078,-6.4828996658325195,-1.4790180921554565,6.454169273376465
1752059936097,,,6.497264862060547
1752059936098,-6.233902454376221,-1.4598644971847534,
1752059936117,,,6.602609634399414
1752059936118,-6.458957672119141,-1.5269020795822144,
1752059936138,-7.086238384246826,-1.6226701736450195,6.679224014282227
1752059936158,-7.531559944152832,-1.7854759693145752,6.377554893493652
1752059936178,-7.426215171813965,-2.029684543609619,6.186018466949463
1752059936197,,,6.497264862060547
1752059936198,-7.378331184387207,-2.072780132293701,
1752059936218,-7.732673168182373,-2.015319347381592,6.899490833282471
1752059936238,-7.976881504058838,-1.8525135517120361,6.942586421966553
1752059936258,-7.770980358123779,-1.713649868965149,6.760627269744873
1752059936278,-7.407061576843262,-1.7806875705718994,6.803722858428955
1752059936298,-6.942586421966553,-1.7615338563919067,6.846818447113037
1752059936318,-6.573879241943359,-1.6226701736450195,6.928221225738525
1752059936338,-6.5930328369140625,-1.5939397811889648,7.1006035804748535
1752059936357,,,7.201159954071045
1752059936358,-6.621763229370117,-1.7615338563919067,
1752059936378,-6.401496887207031,-1.9961656332015991,7.158064365386963
1752059936398,-5.8891377449035645,-1.8716671466827393,6.933009624481201
1752059936418,-5.410297393798828,-1.5939397811889648,6.736684799194336
1752059936438,-5.673659324645996,-1.6274585723876953,6.760627269744873
1752059936458,-6.363189697265625,-1.933916449546814,7.023989200592041
1752059936478,,,7.263409614562988
1752059936479,-6.966528415679932,-2.2212207317352295,
1752059936498,-7.153275966644287,-2.2403743267059326,6.966528415679932
1752059936518,-7.0575079917907715,-1.9865888357162476,6.344036102294922
1752059936538,-7.0575079917907715,-1.8668787479400635,6.363189697265625
1752059936558,-7.17242956161499,-2.0871453285217285,6.894702434539795
1752059936578,-7.225101947784424,-2.2595279216766357,6.933009624481201
1752059936598,-6.952163219451904,-2.182913303375244,6.420650482177734
1752059936618,-6.51641845703125,-1.9818004369735718,6.2386908531188965
1752059936638,-6.291363716125488,-1.9865888357162476,6.454169273376465
1752059936658,,-2.364872694015503,6.669647216796875
1752059936659,-6.401496887207031,,
1752059936678,-6.808511257171631,-2.5899276733398438,6.8611836433410645
1752059936698,-7.311293601989746,-2.403179883956909,6.7941460609436035
1752059936718,-7.39748477935791,-2.1589713096618652,6.435015678405762
1752059936738,-7.249044418334961,-1.9626468420028687,6.387131690979004
1752059936758,-7.402273178100586,-2.0823569297790527,6.674435615539551
1752059936778,-7.61296272277832,-2.407968282699585,6.770204067230225
1752059936798,-7.680000305175781,-2.479794502258301,6.588244438171387
1752059936818,-7.435791969299316,-2.3983914852142334,6.506841659545898
1752059936838,-7.004835605621338,-2.2212207317352295,6.535572052001953
1752059936858,-6.846818447113037,-2.0488381385803223,6.525995254516602
1752059936878,-7.043142795562744,-2.1733365058898926,6.597821235656738
1752059936898,-7.316082000732422,-2.3936030864715576,6.588244438171387
1752059936918,-7.249044418334961,-2.4414870738983154,6.468534469604492
1752059936939,-7.067084789276123,-2.403179883956909,6.478111267089844
1752059936958,-6.933009624481201,-2.470217704772949,6.415862083435059
1752059936978,-6.95695161819458,-2.5755624771118164,6.415862083435059
1752059936998,-7.201159954071045,-2.6569652557373047,6.435015678405762
1752059937018,-7.340023994445801,-2.7766754627227783,6.095038890838623
1752059937038,-7.383119583129883,-2.738368272781372,6.071096897125244
1752059937058,-7.234679222106934,-2.5276784896850586,6.071096897125244
1752059937078,-6.971316814422607,-2.470217704772949,6.008847713470459
1752059937098,-7.0575079917907715,-2.4606409072875977,6.315305709838867
1752059937118,-7.249044418334961,-2.542043685913086,6.492476463317871
1752059937138,-7.148487567901611,-2.5324668884277344,6.248267650604248
1752059937158,-6.870760440826416,-2.4366986751556396,5.970540523529053
1752059937178,-6.827664852142334,-2.451063871383667,6.224325656890869
1752059937198,-7.1676411628723145,-2.5276784896850586,6.583456039428711
1752059937219,-7.555501937866211,-2.8341362476348877,6.5930328369140625
1752059937238,-7.708730697631836,-2.9059622287750244,6.4398040771484375
1752059937258,-7.641693115234375,-2.6856956481933594,6.176441669464111
1752059937278,-7.680000305175781,-2.522890090942383,6.090250492095947
1752059937298,-7.708730697631836,-2.4414870738983154,6.090250492095947
1752059937318,-7.6081743240356445,-2.470217704772949,5.89392614364624
1752059937338,-7.541136741638184,-2.5707740783691406,5.869984149932861
1752059937358,-7.330447196960449,-2.609081268310547,5.89392614364624
1752059937378,-7.153275966644287,-2.5564088821411133,5.850830554962158
1752059937397,,,5.941810131072998
1752059937398,-7.1436991691589355,-2.5133132934570312,
1752059937418,-7.182006359100342,-2.5947160720825195,5.980117321014404
1752059937438,-7.110180377960205,-2.6809072494506836,6.008847713470459
1752059937458,-6.86597204208374,-2.62823486328125,5.980117321014404
1752059937478,-6.73189640045166,-2.5947160720825195,6.066308498382568
1752059937498,-6.9473748207092285,-2.5947160720825195,6.372766494750977
1752059937518,-7.239467620849609,-2.62823486328125,6.463746070861816
1752059937538,-7.311293601989746,-2.6856956481933594,6.272210121154785
1752059937558,-7.134122371673584,-2.522890090942383,6.181230068206787
1752059937630,-6.976105213165283,-2.4175450801849365,6.310517311096191
1752059943106,,-2.5133132934570312,6.209960460662842
1752059943107,-7.17242956161499,-1.4981716871261597,
1752059943108,-6.7031660079956055,,7.36396598815918
1752059943112,-6.679224014282227,-0.9379284977912903,7.019200801849365
1752059943160,-6.818088054656982,-0.9522937536239624,7.019200801849365
1752059943227,,,7.033565998077393
1752059943228,-6.779780864715576,-0.9475052952766418,
1752059949109,,,7.0575079917907715
1752059949110,,,7.086238384246826
1752059949111,,-0.899621307849884,7.091026782989502
1752059949112,-6.7031660079956055,-0.9139865040779114,
1752059949113,-6.578667640686035,-0.9810241460800171,7.162852764129639
1752059949163,,,7.04793119430542
1752059949164,-6.631340026855469,-1.0480618476867676,7.009624004364014
1752059949232,,,7.095815181732178
1752059949233,-6.727108001708984,-1.028908133506775,7.153275966644287
1752059955100,,,7.186794757843018
1752059955101,,,7.177217960357666
1752059955102,,,7.0575079917907715
1752059955103,-6.60739803314209,-1.0193313360214233,6.9473748207092285
1752059955104,-6.8372416496276855,,
1752059955156,,0.436343252658844,6.157288074493408
1752059955157,-5.257068157196045,,
1752059955225,-6.071096897125244,-0.03292027488350868,5.869984149932861
1752059961105,,,5.209184169769287
1752059961106,-6.995258808135986,-0.4734533727169037,6.272210121154785
1752059961107,-6.985682010650635,,
1752059961108,,-0.15263035893440247,6.449380874633789
1752059961164,,,5.884349346160889
1752059961165,-7.153275966644287,-1.8525135517120361,
1752059961232,-7.153275966644287,-1.857301950454712,5.41987419128418
1752059961248,-7.320870399475098,-2.2451627254486084,5.707178115844727
1752059968107,,,5.989694118499756
1752059968108,-7.737461566925049,-2.5947160720825195,6.028001308441162
1752059968109,-8.752602577209473,-2.7287914752960205,7.574655532836914
1752059968110,-7.555501937866211,-0.8134300112724304,3.9450459480285645
1752059968174,-8.340800285339355,-0.43993455171585083,5.304952621459961
1752059968242,-9.365518569946289,-0.5404910445213318,5.089474201202393
1752059979644,,,5.218760967254639
1752059979645,,,6.942586421966553
1752059979646,,-0.11432313174009323,6.415862083435059
1752059979647,-9.169194221496582,0.11552023142576218,
1752059979648,,0.24001872539520264,6.10940408706665
1752059979649,-7.756615161895752,0.22086510062217712,
1752059979717,,,6.233902454376221
1752059979718,-7.440580368041992,0.35494041442871094,6.176441669464111
1752059979784,-7.27298641204834,0.44592007994651794,6.224325656890869
1752059979851,-7.7230963706970215,0.21128830313682556,6.344036102294922
1752059979939,-8.019977569580078,0.02454056777060032,5.999270915985107
1752059980003,,,6.147711277008057
1752059980004,-7.790133953094482,0.19692309200763702,6.1716532707214355
1752059980069,-7.287351608276367,0.3405751883983612,6.162076473236084
1752059980137,-7.574655532836914,0.21607670187950134,6.142922878265381
1752059980204,-7.890690326690674,0.17298106849193573,6.186018466949463
1752059980270,,,6.229114055633545
1752059980271,-7.550713539123535,0.30705636739730835,6.248267650604248
1752059984688,,0.2735375463962555,6.358401298522949
1752059984689,-7.354389190673828,0.1107318252325058,
1752059984693,-7.885901927947998,0.1346738487482071,5.774216175079346
1752059984761,,0.25438392162323,6.028001308441162
1752059984762,-7.502829551696777,0.26396074891090393,
1752059984828,-7.593809127807617,0.21607670187950134,5.994482517242432
1752059984895,,,5.8651957511901855
1752059984896,-7.814075946807861,0.1538274586200714,
1752059984961,-7.727884769439697,0.1825578808784485,5.817311763763428
1752059985864,,0.14903905987739563,6.013636112213135
1752059985865,-7.818864345550537,0.005386953707784414,
1752059985867,,-0.03292027488350868,6.004059314727783
1752059985868,-7.756615161895752,,
1752059985932,,,6.157288074493408
1752059985933,-7.737461566925049,-0.09038111567497253,
1752059985999,,,5.956175327301025
1752059986000,-7.646481513977051,-0.04249707981944084,6.004059314727783
1752059997528,,-0.04728548228740692,6.071096897125244
1752059997529,-7.737461566925049,0.11552023142576218,
1752059997530,-7.8092875480651855,,
1752059997531,,,6.004059314727783
1752059997532,-7.914632320404053,0.35494041442871094,5.333683013916016
1752059997597,-7.866748332977295,0.41718965768814087,5.711966514587402
1752059997663,-8.039131164550781,0.383670836687088,5.549160957336426
1752059997750,-8.33601188659668,0.19213469326496124,5.3576250076293945
1752059997815,-8.221090316772461,0.2687491476535797,5.496488571166992
1752059997882,,,5.549160957336426
1752059997887,,,5.5778913497924805
1752059997890,-8.154052734375,0.35015198588371277,
1752059997947,-7.842806339263916,0.37888240814208984,5.66887092590332
1752059998014,,,5.678447723388672
1752059998015,-7.967304706573486,0.345363587141037,5.640140533447266
1752059998081,,,5.721543312072754
1752059998082,-7.8332295417785645,0.32620999217033386,
1752060002527,-7.9194207191467285,0.25917232036590576,5.740696907043457
1752060002532,-8.12053394317627,0.4124012291431427,5.448604583740234
1752060002536,-7.9194207191467285,0.46986207365989685,6.037578105926514
1752060002605,-7.996035099029541,0.4076128304004669,5.678447723388672
1752060002671,-7.708730697631836,0.5512649416923523,5.7790045738220215
1752060002738,,,5.903502941131592
1752060002739,-7.938574314117432,0.5225345492362976,5.86040735244751
1752060002804,,,5.793369770050049
1752060002805,-7.9864583015441895,0.6326677799224854,
1752060003785,-8.216301918029785,0.761954665184021,5.846042156219482
1752060003790,-7.9194207191467285,2.3708581924438477,6.406285285949707
1752060003860,-6.60739803314209,2.0452468395233154,6.090250492095947
1752060003926,-5.989694118499756,2.121861219406128,5.644928932189941
1752060004000,-6.880337238311768,0.2687491476535797,6.7510504722595215
1752060004064,-8.695141792297363,1.7627309560775757,7.110180377960205
1752060004131,-7.8092875480651855,0.517746090888977,5.999270915985107
1752060004197,-8.019977569580078,0.9534908533096313,5.869984149932861
1752060004384,,,6.846818447113037
1752060004385,-7.421426773071289,0.9295487999916077,
1752060004390,-6.909067630767822,1.3413515090942383,7.296928405761719
1752060004459,-6.9904704093933105,1.6573861837387085,6.621763229370117
1752060004525,-7.732673168182373,1.9255367517471313,6.152499675750732
1752060004591,,,5.247491359710693
1752060004592,-8.537124633789062,2.011728048324585,5.017648220062256
1752060004660,-8.015189170837402,1.7148469686508179,5.213972568511963
1752060004725,,,5.1996073722839355
1752060004726,-7.426215171813965,1.513733983039856,5.434239387512207
1752060004792,-8.18757152557373,0.7523778676986694,5.376778602600098
1752060004860,,,5.89392614364624
1752060004861,-7.770980358123779,0.656609833240509,
1752060004925,,,6.162076473236084
1752060004926,-7.952939510345459,0.7044938206672668,6.114192485809326
1752060004991,-7.680000305175781,0.6805518269538879,6.3296709060668945
1752060005059,,,6.023212909698486
1752060005060,-7.708730697631836,-0.12389993667602539,
1752060005125,-8.21151351928711,-0.16220717132091522,5.6209869384765625
1752060005193,-8.110957145690918,-0.2148796021938324,5.319317817687988
1752060005259,,,5.4246625900268555
1752060005260,-8.470087051391602,-0.48303020000457764,5.5108537673950195
1752060005325,-8.417414665222168,-0.3250128924846649,5.63535213470459
1752060005392,-7.938574314117432,-0.013766659423708916,5.989694118499756
1752060005459,,,5.8221001625061035
1752060005460,-7.148487567901611,0.14903905987739563,
1752060005525,-6.846818447113037,-0.9953893423080444,5.257068157196045
1752060005592,-6.8372416496276855,-1.6944962739944458,4.97934103012085
1752060005660,,,5.290587425231934
1752060005661,-7.493252754211426,-2.2164323329925537,
1752060005725,,,6.023212909698486
1752060005726,-8.398261070251465,-2.695272445678711,6.358401298522949
1752060005792,,,6.976105213165283
1752060005793,-8.082226753234863,-1.8908207416534424,7.119757175445557
1752060005859,,,7.2298903465271
1752060005860,-7.7470383644104,-1.2970588207244873,7.162852764129639
1752060005925,,,7.344812393188477
1752060005926,-7.124545574188232,-0.7128735780715942,7.383119583129883
1752060005993,-6.717531204223633,-0.6937199234962463,6.765415668487549
1752060006060,-6.770204067230225,-1.1965023279190063,6.367978096008301
1752060006125,-6.899490833282471,-1.148618221282959,5.716754913330078
1752060006193,-6.95695161819458,-1.3832499980926514,6.07588529586792
1752060006259,,-1.426345705986023,6.004059314727783
1752060006260,-7.153275966644287,,
1752060006325,,-1.225232720375061,6.296152114868164
1752060006326,-7.234679222106934,,
1752060007253,-8.326435089111328,-0.641047477722168,5.913079738616943
1752060007259,-8.115745544433594,0.5225345492362976,5.391143798828125
1752060007325,-8.015189170837402,0.5943605899810791,5.448604583740234
1752060007392,-8.149264335632324,0.5608417391777039,5.625775337219238
1752060007457,-8.091803550720215,0.536899745464325,5.563526153564453
1752060007524,-8.18757152557373,0.5608417391777039,5.711966514587402
1752060007590,-8.091803550720215,0.6278793811798096,5.515642166137695
1752060010224,,,5.434239387512207
1752060010225,-8.082226753234863,0.7044938206672668,5.506065368652344
1752060010226,,,5.611410140991211
1752060010289,,,5.54437255859375
1752060010290,-8.09659194946289,0.3405751883983612,
1752060010358,-8.010400772094727,0.35494041442871094,5.563526153564453
1752060010424,-8.067861557006836,0.30226796865463257,5.611410140991211
1752060010490,-8.019977569580078,0.31184476613998413,5.625775337219238
1752060010651,-8.101380348205566,0.35494041442871094,5.601833343505859
1752060010720,,0.35015198588371277,5.54437255859375
1752060010721,-8.039131164550781,0.345363587141037,
1752060010786,,0.345363587141037,5.5778913497924805
1752060010787,-8.125322341918945,0.31184476613998413,
1752060010853,-7.972093105316162,0.3357867896556854,5.592256546020508
1752060010920,,,5.592256546020508
1752060010921,-8.02955436706543,0.32620999217033386,5.582679748535156
1752060010987,-7.9864583015441895,0.33099839091300964,5.597044944763184
1752060011054,-8.110957145690918,0.32620999217033386,5.5778913497924805
1752060011122,-8.048707962036133,0.3405751883983612,5.587468147277832
1752060011187,,,5.611410140991211
1752060011188,-8.082226753234863,0.3357867896556854,5.616198539733887
1752060011254,-7.981669902801514,0.3884592354297638,5.5778913497924805
1752060011322,-8.053496360778809,0.3357867896556854,5.5778913497924805
1752060011387,-8.015189170837402,0.3693056106567383,5.549160957336426
1752060011453,,,5.640140533447266
1752060011454,-8.00561237335205,0.33099839091300964,5.616198539733887
1752060011521,,,5.601833343505859
1752060011522,-8.015189170837402,0.383670836687088,5.601833343505859
1752060011587,-8.058284759521484,0.345363587141037,5.549160957336426
1752060011655,-7.9625163078308105,0.3645172119140625,5.611410140991211
1752060011720,,,5.592256546020508
1752060011721,-8.106168746948242,0.3405751883983612,5.549160957336426
1752060011788,,0.35015198588371277,5.601833343505859
1752060011789,-8.077438354492188,0.31184476613998413,
1752060011854,-8.067861557006836,0.4076128304004669,5.520430564880371
1752060011921,-7.8763251304626465,0.39803603291511536,5.6640825271606445
1752060011987,,,5.563526153564453
1752060011988,-7.981669902801514,0.3214215636253357,
1752060012053,,,5.549160957336426
1752060012054,-8.115745544433594,0.3645172119140625,5.568314552307129
1752060012121,,0.3357867896556854,5.515642166137695
1752060012122,-8.177994728088379,,
1752060012188,,0.16819266974925995,5.597044944763184
1752060012189,-8.082226753234863,0.37409400939941406,
1752060012253,-7.761403560638428,0.3597288131713867,5.764639377593994
1752060012321,,,5.755062103271484
1752060012322,-7.885901927947998,0.39803603291511536,5.75985050201416
1752060012387,,,5.649717330932617
1752060012388,-8.02955436706543,0.42197805643081665,
1752060012453,,,5.66887092590332
1752060012454,-8.087015151977539,0.3166331648826599,5.72633171081543
1752060012521,,,5.659294128417969
1752060012522,-7.80449914932251,0.5464765429496765,
1752060012588,,0.5416881442070007,5.869984149932861
1752060012589,-7.881113529205322,,
1752060017602,,,5.740696907043457
1752060017603,,,5.247491359710693
1752060017605,,0.35015198588371277,6.473322868347168
1752060017606,-7.857171535491943,2.160168409347534,
1752060017670,,2.160168409347534,5.1996073722839355
1752060017671,-8.623315811157227,,
1752060017736,,,5.122992992401123
1752060017737,-9.413402557373047,1.5041571855545044,
1752060061128,,,5.079897403717041
1752060061129,,,5.7790045738220215
1752060061130,,1.2838906049728394,7.603385925292969
1752060061132,,2.3038206100463867,
1752060061133,-6.9473748207092285,0.618302583694458,
1752060061134,-6.080673694610596,,
1752060061135,-6.458957672119141,,
1752060061136,,,7.8092875480651855
1752060061137,,,9.111733436584473
1752060061138,-7.83801794052124,-0.43514615297317505,5.999270915985107
1752060061139,-7.7470383644104,,6.066308498382568
1752060061140,-7.905055522918701,-0.6314706802368164,6.3296709060668945
1752060061141,-7.124545574188232,-0.8373720645904541,5.846042156219482
1752060061142,-6.320094108581543,-0.7128735780715942,7.335235595703125
1752060061208,,,7.6081743240356445
1752060061209,-7.263409614562988,-0.9906009435653687,
1752060061276,-6.976105213165283,-0.578798234462738,5.75985050201416
1752060061342,,,8.51797103881836
1752060061343,-8.053496360778809,-1.6035165786743164,6.2386908531188965
1752060061427,-6.315305709838867,-0.7751228213310242,7.680000305175781
1752060061491,-7.684788703918457,-1.0241197347640991,6.755838871002197
1752060061559,-6.722319602966309,-0.9858125448226929,7.177217960357666
1752060061624,,,6.885125637054443
1752060061625,-6.913856029510498,-0.7320271730422974,7.019200801849365
1752060062347,,,7.474099159240723
1752060062348,-8.053496360778809,-1.4119805097579956,6.032789707183838
1752060062351,-8.36953067779541,-1.3976151943206787,6.0423665046691895
1752060062417,,,7.004835605621338
1752060062418,-7.517194747924805,,
1752060062483,-7.287351608276367,-0.9906009435653687,6.444592475891113
1752060062549,-7.732673168182373,-1.5843629837036133,8.024765968322754
1752060062615,-6.344036102294922,-1.0576386451721191,5.281010627746582
1752060062683,-7.3017168045043945,-1.5269020795822144,6.583456039428711
1752060071387,-6.281786918640137,-1.325789213180542,6.511630058288574
1752060071388,-7.043142795562744,-1.225232720375061,6.377554893493652
1752060071389,-7.08144998550415,-1.5269020795822144,6.454169273376465
1752060071390,-7.61296272277832,-0.38726213574409485,6.219537258148193
1752060071458,-7.665635108947754,-0.3728969097137451,6.008847713470459
1752060071526,-7.713519096374512,-0.4207809567451477,5.994482517242432
1752060071592,-7.761403560638428,-0.43514615297317505,5.917868137359619
1752060071659,-7.790133953094482,-0.3728969097137451,5.999270915985107
1752060072428,-7.665635108947754,-0.32022446393966675,6.061520099639893
1752060072434,-7.641693115234375,-0.3776853084564209,6.0184245109558105
1752060072504,-7.680000305175781,-0.4207809567451477,6.1285576820373535
1752060072570,-7.6752119064331055,-0.33937808871269226,6.0423665046691895
1752060081092,,,6.080673694610596
1752060081093,-7.57944393157959,-0.4016273319721222,6.004059314727783
1752060081094,-7.493252754211426,-0.8086416125297546,6.157288074493408
1752060081095,-7.627327919006348,0.8768763542175293,5.213972568511963
1752060081097,-7.89547872543335,-0.6266822814941406,6.248267650604248
1752060081165,,-0.4495113790035248,6.468534469604492
1752060081166,-7.435791969299316,-0.535702645778656,
1752060081233,,-0.43514615297317505,6.344036102294922
1752060081234,-7.70394229888916,-0.4016273319721222,
1752060081299,,-0.39205053448677063,6.205172061920166
1752060081300,-7.459733963012695,-0.5069721937179565,
1752060081366,-7.450157165527344,-0.36332011222839355,6.080673694610596
1752060081432,,0.1777694821357727,6.037578105926514
1752060081433,-8.714295387268066,,
1752060081499,-9.197924613952637,0.9678560495376587,6.248267650604248
1752060081566,,1.4658499956130981,6.449380874633789
1752060081567,-8.21151351928711,,
1752060081630,-7.268198013305664,1.9399019479751587,5.999270915985107
1752060081631,-7.114968776702881,,
1752060081698,,1.4323312044143677,5.209184169769287
1752060081699,-7.311293601989746,,
1752060081765,-7.823652744293213,0.9534908533096313,4.9601874351501465
1752060081831,-8.40304946899414,0.6135141849517822,4.907515048980713
1752060081897,,,5.146934986114502
1752060081898,-9.039907455444336,0.5129576921463013,5.13735818862915
1752060081993,-8.594585418701172,0.8433575630187988,5.76942777633667
1752060081997,-8.192359924316406,0.9199720025062561,6.626551628112793
1752060082062,,,6.353612899780273
1752060082063,-7.8763251304626465,1.22642982006073,6.142922878265381
1752060082129,,0.9247604012489319,5.874772548675537
1752060082130,-8.508394241333008,0.9343371987342834,
1752060082195,,,5.553949356079102
1752060082196,-7.636904716491699,1.2934675216674805,
1752060082262,,,5.10383939743042
1752060082263,-7.83801794052124,0.8194155097007751,5.170876979827881
1752060082329,-8.51797103881836,0.800261914730072,5.2666449546813965
1752060082395,-7.814075946807861,0.9247604012489319,5.592256546020508
1752060082462,,,5.477334976196289
1752060082463,-7.61296272277832,0.436343252658844,5.491700172424316
1752060082528,,,5.66887092590332
1752060082529,-7.957727909088135,-0.6745663285255432,
1752060082595,-7.373542785644531,-0.8277952671051025,5.788581371307373
1752060082645,-7.713519096374512,-1.028908133506775,6.458957672119141
1752060082709,,,6.736684799194336
1752060082710,-7.641693115234375,-0.9044097065925598,7.019200801849365
1752060082775,,,7.244256019592285
1752060082776,-8.273762702941895,-0.7894880175590515,7.158064365386963
1752060082843,,,7.287351608276367
1752060082844,-7.17242956161499,-1.062427043914795,7.263409614562988
1752060082909,,-0.5165489912033081,6.415862083435059
1752060082910,-7.569867134094238,,
1752060082976,,-0.6554127335548401,5.817311763763428
1752060082977,-7.938574314117432,,
1752060083043,,,5.9753289222717285
1752060083044,-6.621763229370117,-0.7416039705276489,6.023212909698486
1752060083110,-7.4549455642700195,-1.0672154426574707,5.817311763763428
1752060083176,-8.350377082824707,-0.8038532137870789,5.36241340637207
1752060083243,,,5.4677581787109375
1752060083244,-7.828441143035889,-0.7703344225883484,5.702389717102051
1752060083309,-7.569867134094238,-1.0384849309921265,6.123769283294678
1752060083376,,,6.339247703552246
1752060083377,-7.651269912719727,-0.8661024570465088,6.693589210510254
1752060083443,,-0.8900445103645325,6.7749924659729
1752060083444,-7.512406349182129,,
1752060083549,,,5.869984149932861
1752060083550,-7.646481513977051,-0.9906009435653687,5.869984149932861
1752060083554,-7.737461566925049,-0.6554127335548401,6.080673694610596
1752060083619,-7.761403560638428,-0.7128735780715942,5.908291339874268
1752060083685,,,6.612186431884766
1752060083686,-7.584232330322266,-0.9139865040779114,6.588244438171387
1752060083750,,,6.827664852142334
1752060083751,-6.372766494750977,-0.7320271730422974,7.095815181732178
1752060083819,-7.000047206878662,-0.679354727268219,6.688800811767578
1752060083887,-7.431003570556641,-0.8708908557891846,6.942586421966553
1752060083953,-7.359177589416504,-0.29149407148361206,6.147711277008057
1752060084019,-7.790133953094482,-0.27712884545326233,6.5930328369140625
1752060084086,,0.28790274262428284,5.884349346160889
1752060084087,-7.244256019592285,0.3597288131713867,
1752060084151,-8.02955436706543,0.517746090888977,5.783792972564697
1752060084218,-8.048707962036133,0.7571662664413452,6.004059314727783
1752060084284,,,6.066308498382568
1752060084285,-7.885901927947998,0.9726444482803345,5.913079738616943
1752060084352,-8.015189170837402,1.4514847993850708,5.683236122131348
1752060084418,,,5.386355400085449
1752060084419,-8.015189170837402,1.590348482131958,
1752060084486,-7.038354396820068,1.5711948871612549,5.582679748535156
1752060084552,-7.162852764129639,0.48901569843292236,6.186018466949463
1752060084618,,0.11552023142576218,5.903502941131592
1752060084619,-7.852383136749268,,
1752060084686,,0.6087257862091064,6.181230068206787
1752060084687,-8.125322341918945,0.618302583694458,
1752060084752,-8.27855110168457,1.2934675216674805,6.684012413024902
1752060084818,,,6.827664852142334
1752060084819,-8.139687538146973,1.0013748407363892,6.933009624481201
1752060084886,-7.2107367515563965,1.0971429347991943,6.444592475891113
1752060084952,,,5.956175327301025
1752060084953,-7.1676411628723145,0.8433575630187988,5.908291339874268
1752060085018,,0.8337807655334473,5.774216175079346
1752060085019,-7.526771545410156,,
1752060085086,-7.641693115234375,0.9056068062782288,5.439027786254883
1752060085151,,,5.625775337219238
1752060085152,-7.57944393157959,1.1354501247406006,5.764639377593994
1752060085259,-7.6752119064331055,0.9199720025062561,6.0854620933532715
1752060085263,-8.125322341918945,0.7380126714706421,6.142922878265381
1752060085327,,,5.486911773681641
1752060085328,-7.780557155609131,0.9917980432510376,
1752060085394,,,6.497264862060547
1752060085395,-7.818864345550537,0.943913996219635,
1752060085461,-7.507617950439453,1.1019313335418701,6.4398040771484375
1752060085528,-7.751826763153076,1.0013748407363892,6.367978096008301
1752060085594,-7.3687543869018555,1.1115081310272217,6.243479251861572
1752060085660,,,6.784569263458252
1752060085661,-7.584232330322266,0.8242039084434509,6.645705223083496
1752060085728,,,6.344036102294922
1752060085729,-7.325658798217773,0.8433575630187988,6.224325656890869
1752060085794,,,6.0184245109558105
1752060085795,-6.92343282699585,1.0109516382217407,
1752060085861,-7.311293601989746,1.025316834449768,5.946598529815674
1752060085928,-7.493252754211426,0.8433575630187988,5.812523365020752
1752060085994,-8.948927879333496,0.345363587141037,6.080673694610596
1752060086061,,0.6757634282112122,5.659294128417969
1752060086062,-8.130110740661621,,
1752060086128,,,6.262633323669434
1752060086129,-8.604162216186523,0.21128830313682556,6.597821235656738
1752060086195,-8.106168746948242,0.6326677799224854,6.870760440826416
1752060086261,-7.3017168045043945,0.8672995567321777,6.760627269744873
1752060086329,,,6.83245325088501
1752060086330,-6.69837760925293,0.9678560495376587,
1752060086395,-6.4398040771484375,0.6613982319831848,6.588244438171387
1752060086462,-5.86040735244751,0.579995334148407,5.611410140991211
1752060086528,,,6.363189697265625
1752060086529,-6.736684799194336,-0.15741875767707825,6.296152114868164
1752060086595,-7.469310760498047,-0.5213374495506287,6.5930328369140625
1752060086662,-7.761403560638428,-0.43993455171585083,6.3967084884643555
1752060086728,,,7.4549455642700195
1752060086729,-8.355165481567383,-0.7368155717849731,7.263409614562988
1752060086794,,,6.856395244598389
1752060086795,-6.9473748207092285,-0.444722980260849,
1752060086861,-7.48846435546875,-0.6697779297828674,6.645705223083496
1752060086929,-6.942586421966553,-0.4926069974899292,6.913856029510498
1752060086995,,,6.913856029510498
1752060086996,-6.7749924659729,-0.5835866928100586,
1752060087061,,,5.879560947418213
1752060087062,-6.406285285949707,-0.004189853090792894,
1752060087129,,,6.909067630767822
1752060087130,-7.019200801849365,-0.26755204796791077,7.215525150299072
1752060087195,-7.325658798217773,-0.2579752206802368,6.4398040771484375
1752060087261,-8.249820709228516,-0.8469488620758057,7.052719593048096
1752060087329,-7.8092875480651855,-0.6697779297828674,6.679224014282227
1752060087395,-5.6640825271606445,0.1586158573627472,4.476558685302734
1752060087463,-7.349600791931152,-1.004966139793396,8.21151351928711
1752060087529,-6.707954406738281,0.18734627962112427,6.933009624481201
1752060087595,-6.770204067230225,-0.38726213574409485,8.905831336975098
1752060087662,-7.239467620849609,-0.5740098357200623,8.230667114257812
1752060087728,,,6.387131690979004
1752060087729,-8.134899139404297,-0.6745663285255432,
1752060087794,,,6.765415668487549
1752060087795,-8.09659194946289,-0.9091981053352356,5.3576250076293945
1752060087861,,-0.19572599232196808,5.783792972564697
1752060087862,-6.894702434539795,,
1752060087928,-6.602609634399414,-1.368884801864624,8.197148323059082
1752060087994,,-1.3210008144378662,7.842806339263916
1752060087995,-7.383119583129883,,
1752060088061,-7.383119583129883,-1.3401544094085693,6.655282020568848
1752060088129,-8.532336235046387,-1.7519570589065552,8.307281494140625
1752060088194,,,5.2235493659973145
1752060088195,-5.597044944763184,0.4985924959182739,5.659294128417969
1752060088260,-7.866748332977295,-0.6362590789794922,6.995258808135986
1752060088327,,,6.712742805480957
1752060088328,-6.1955952644348145,-0.2388216257095337,6.899490833282471
1752060088393,,,8.40304946899414
1752060088394,-7.83801794052124,-1.4215573072433472,7.560290336608887
1752060088460,,,8.7669677734375
1752060088461,-7.134122371673584,-0.6697779297828674,
1752060088527,,0.24480712413787842,5.994482517242432
1752060088528,-6.554725646972656,,
1752060088594,-6.4398040771484375,-0.5404910445213318,6.664858818054199
1752060088660,,,6.1955952644348145
1752060088661,-6.257844924926758,-0.679354727268219,6.209960460662842
1752060088728,,,5.233126163482666
1752060088729,-7.560290336608887,-1.5029600858688354,5.965752124786377
1752060088793,,,6.0184245109558105
1752060088794,-7.948151111602783,-1.9913772344589233,6.1285576820373535
1752060088860,,-1.3305776119232178,6.458957672119141
1752060088861,-7.9625163078308105,-1.105522632598877,
1752060088928,-6.746262073516846,-0.9666589498519897,6.525995254516602
1752060088994,-6.631340026855469,-0.5165489912033081,6.205172061920166
1752060089060,,,7.320870399475098
1752060089061,-6.4398040771484375,-0.3728969097137451,7.191583156585693
1752060089127,,,7.727884769439697
1752060089128,-5.462969779968262,-0.24839842319488525,
1752060089194,,,8.024765968322754
1752060089195,-6.004059314727783,-1.0193313360214233,8.331223487854004
1752060089893,,-0.9187749028205872,6.899490833282471
1752060089894,-6.138134479522705,-0.760757565498352,
1752060089898,-7.900267124176025,-0.9475052952766418,5.927444934844971
1752060089968,,,6.736684799194336
1752060089969,-6.071096897125244,-0.17178396880626678,
1752060090034,-5.855618953704834,-0.2148796021938324,7.1436991691589355
1752060090122,,,7.091026782989502
1752060090123,-5.261856555938721,0.048482585698366165,
1752060090126,-4.711190223693848,-0.7511807680130005,8.647257804870605
1752060090192,-4.88836145401001,-1.0480618476867676,8.532336235046387
1752060090258,-8.058284759521484,-1.7423802614212036,8.249820709228516
1752060090325,-8.810063362121582,-1.6466121673583984,7.866748332977295
1752060090519,-8.46051025390625,-1.2731167078018188,
1752060090588,-6.798934459686279,-0.8948329091072083,5.563526153564453
1752060090654,-6.008847713470459,-0.6458359360694885,5.659294128417969
1752060090721,-7.550713539123535,-1.0672154426574707,5.989694118499756
1752060090788,,,6.9473748207092285
1752060090789,-7.043142795562744,-0.535702645778656,7.512406349182129
1752060090855,-6.262633323669434,-0.3345896899700165,7.727884769439697
1752060090922,-6.435015678405762,-0.5404910445213318,8.513182640075684
1752060093080,,,7.943362712860107
1752060093081,-6.281786918640137,-0.5548562407493591,7.062296390533447
1752060093085,-4.083909511566162,0.9056068062782288,5.1565117835998535
1752060093154,-5.122992992401123,1.4083890914916992,4.534019470214844
1752060093221,,,5.917868137359619
1752060093222,-6.473322868347168,0.7715315222740173,5.879560947418213
1752060093321,-7.622539520263672,0.5416881442070007,6.310517311096191
1752060093325,-8.762179374694824,-0.16220717132091522,6.377554893493652
1752060093390,-9.652822494506836,-0.8182184100151062,7.1676411628723145
1752060093456,-9.892242431640625,-0.8756792545318604,7.976881504058838
1752060093523,-9.59057331085205,-0.5069721937179565,8.632892608642578
1752060101322,,,8.144475936889648
1752060101323,,0.14425064623355865,5.4677581787109375
1752060101324,-8.565855026245117,0.46507367491722107,
1752060101325,-8.340800285339355,,
1752060101393,-7.6752119064331055,0.7811083197593689,5.946598529815674
1752060101458,,0.7571662664413452,6.339247703552246
1752060101459,-7.440580368041992,,
1752060101525,-7.292140007019043,0.7715315222740173,5.568314552307129
1752060101592,,,6.133346080780029
1752060101593,-7.948151111602783,0.5464765429496765,5.783792972564697
1752060101658,,,5.750273704528809
1752060101659,-7.249044418334961,0.5560533404350281,5.716754913330078
1752060101725,,0.14425064623355865,5.371990203857422
1752060101726,-7.665635108947754,,
1752060103903,-8.33601188659668,-0.0520738884806633,5.170876979827881
1752060103904,,,5.185242176055908
1752060103909,-7.110180377960205,0.5033808946609497,6.219537258148193
1752060103978,,,6.789357662200928
1752060103979,-7.622539520263672,0.5033808946609497,6.468534469604492
1752060104044,,0.7571662664413452,5.8891377449035645
1752060104045,-7.981669902801514,,
1752060104389,,,5.9753289222717285
1752060104390,-7.512406349182129,0.800261914730072,5.252279758453369
1752060104395,,,6.0184245109558105
1752060104396,-8.829216957092285,0.14903905987739563,5.98490571975708
1752060104465,-7.493252754211426,0.48901569843292236,5.89392614364624
1752060104531,,,5.999270915985107
1752060104532,-7.684788703918457,0.25917232036590576,6.004059314727783
1752060104597,,,5.491700172424316
1752060104598,-7.27298641204834,0.7044938206672668,
1752060104664,-8.838793754577637,0.3166331648826599,6.118980884552002
1752060104731,-7.110180377960205,1.1019313335418701,5.54437255859375
1752060104821,-7.646481513977051,0.6326677799224854,5.922656536102295
1752060104886,-7.402273178100586,0.5033808946609497,6.0854620933532715
1752060104952,,,6.214748859405518
1752060104953,-7.8332295417785645,0.44592007994651794,6.032789707183838
1752060105019,-7.5219831466674805,0.3214215636253357,6.056731700897217
1752060105020,-7.502829551696777,,
1752060105085,,,5.826888561248779
1752060105086,-7.531559944152832,0.4076128304004669,6.0854620933532715
1752060105152,,,6.478111267089844
1752060105153,-8.790909767150879,0.28790274262428284,5.946598529815674
1752060105223,-7.751826763153076,0.7140706777572632,6.870760440826416
1752060105288,-7.162852764129639,0.6997054219245911,6.952163219451904
1752060105354,-6.4828996658325195,0.9726444482803345,5.913079738616943
1752060105421,-7.009624004364014,0.517746090888977,5.9753289222717285
1752060105488,-8.06307315826416,0.39803603291511536,6.3296709060668945
1752060105554,-7.680000305175781,0.618302583694458,6.209960460662842
1752060105620,,,5.735908508300781
1752060105621,-8.02955436706543,0.30226796865463257,5.45339298248291
1752060105689,-7.785345554351807,0.5656301379203796,6.07588529586792
1752060110197,,0.8242039084434509,5.846042156219482
1752060110198,-6.602609634399414,0.3357867896556854,6.147711277008057
1752060110200,,0.6278793811798096,5.482123374938965
1752060110201,-8.067861557006836,,
1752060110270,,,5.295375823974609
1752060110271,-7.469310760498047,0.4985924959182739,5.304952621459961
1752060110336,,,5.654505729675293
1752060110337,-8.177994728088379,0.10115502029657364,
1752060110451,-8.139687538146973,0.16340427100658417,5.8651957511901855
1752060110519,-8.498817443847656,-0.018555063754320145,6.64091682434082
1752060110586,,,5.994482517242432
1752060110587,-7.526771545410156,0.536899745464325,6.39192008972168
1752060110653,-7.89547872543335,0.18734627962112427,5.903502941131592
1752060110719,,,5.745485305786133
1752060110720,-8.580220222473145,0.0867898091673851,5.170876979827881
1752060112422,-7.191583156585693,0.3645172119140625,5.142146587371826
1752060112424,-6.980893611907959,0.5847837924957275,5.884349346160889
1752060112490,,,6.257844924926758
1752060112494,-6.933009624481201,0.4842272996902466,6.367978096008301
1752060112555,-6.430227279663086,0.7811083197593689,5.922656536102295
1752060112621,-7.3017168045043945,0.4794389009475708,5.405508995056152
1752060112689,-7.584232330322266,0.3645172119140625,5.711966514587402
1752060112797,-7.459733963012695,-0.04249707981944084,5.903502941131592
1752060112800,,,6.4398040771484375
1752060112801,-7.531559944152832,-0.04728548228740692,6.880337238311768
1752060112865,,,7.08144998550415
1752060112866,-7.153275966644287,-0.018555063754320145,
1752060112933,-7.13891077041626,-0.15263035893440247,6.64091682434082
1752060112998,,,5.697601318359375
1752060112999,-6.7031660079956055,0.12509703636169434,
1752060113534,-7.751826763153076,-0.24361002445220947,5.501276969909668
1752060113538,-8.307281494140625,-0.33937808871269226,6.262633323669434
1752060113602,-7.8332295417785645,0.07721300423145294,6.243479251861572
1752060113670,-7.6081743240356445,-0.04249707981944084,6.1285576820373535
1752060113736,,0.14903905987739563,5.917868137359619
1752060113737,-7.622539520263672,,
1752060113802,-7.814075946807861,-0.12389993667602539,6.324882507324219
1752060121886,,,5.89392614364624
1752060121887,,-0.06165069341659546,6.612186431884766
1752060121888,-7.83801794052124,0.16819266974925995,
1752060121889,-7.909843921661377,,
1752060121953,-7.158064365386963,-0.0520738884806633,6.7941460609436035
1752060121954,-7.071873188018799,,
1752060122019,-7.105391979217529,-0.013766659423708916,6.502053260803223
1752060122086,-7.062296390533447,0.12988543510437012,6.267421722412109
1752060122152,,,6.315305709838867
1752060122153,-7.17242956161499,0.12509703636169434,6.367978096008301
1752060122220,,0.02454056777060032,6.521206855773926
1752060122221,-7.474099159240723,,
1752060126090,,,6.631340026855469
1752060126091,-7.536348342895508,0.1107318252325058,6.406285285949707
1752060126094,-6.4828996658325195,0.2974795699119568,7.244256019592285
1752060126158,-6.243479251861572,-0.08559270948171616,7.641693115234375
1752060126225,,,7.7470383644104
1752060126226,-6.492476463317871,-0.3489548861980438,
1752060126292,-6.813299655914307,-0.2867056429386139,7.632116317749023
1752060126359,-6.626551628112793,-0.13347674906253815,7.431003570556641
1752060126425,-6.229114055633545,-0.018555063754320145,7.474099159240723
1752060126509,,,7.6081743240356445
1752060126510,-6.554725646972656,-0.076015904545784,
1752060126574,-5.8221001625061035,-0.12389993667602539,7.560290336608887
1752060126641,-6.535572052001953,-0.166995570063591,7.17242956161499
1752060126708,-6.564302444458008,-0.07122749835252762,7.13891077041626
1752060127439,-6.377554893493652,0.1346738487482071,6.755838871002197
1752060127443,,0.24001872539520264,8.455721855163574
1752060127444,-5.8891377449035645,,
1752060127508,-5.6640825271606445,-0.7224503755569458,8.661623001098633
1752060127575,-5.913079738616943,-0.4878185987472534,8.06307315826416
1752060136991,-6.569090843200684,-0.11432313174009323,7.531559944152832
1752060136992,-8.034342765808105,-0.7846996188163757,7.756615161895752
1752060136993,-8.048707962036133,-0.9235633015632629,6.186018466949463
1752060136994,-7.967304706573486,-1.8716671466827393,4.811747074127197
1752060137059,-7.732673168182373,-0.7751228213310242,6.267421722412109
1752060137125,,,6.353612899780273
1752060137126,-7.517194747924805,-0.6985083222389221,
1752060137192,,,6.142922878265381
1752060137193,-7.502829551696777,-0.7751228213310242,6.142922878265381
1752060137260,-7.713519096374512,-0.9044097065925598,6.209960460662842
1752060137719,-7.569867134094238,-0.9858125448226929,5.8221001625061035
1752060137723,-7.30650520324707,-0.7942764163017273,6.118980884552002
1752060137789,-7.861959934234619,-1.1294646263122559,5.836465358734131
1752060137854,,,4.864419460296631
1752060137855,-8.465298652648926,-1.1773487329483032,4.873996257781982
1752060154521,,,5.381567001342773
1752060154522,,,6.583456039428711
1752060154523,,-1.0432734489440918,7.292140007019043
1752060154524,,-1.2970588207244873,
1752060154525,-8.498817443847656,-2.206855535507202,
1752060154526,-6.60739803314209,,
1752060154587,-6.712742805480957,-1.909974455833435,7.239467620849609
1752060154654,-6.693589210510254,-1.8525135517120361,7.201159954071045
1752060154721,-6.8372416496276855,-1.2348095178604126,7.023989200592041
1752060154787,-6.468534469604492,-1.2970588207244873,7.196371555328369
1752060154848,-6.660070419311523,-1.4598644971847534,6.913856029510498
1752060154913,,,6.913856029510498
1752060154914,-6.602609634399414,-1.4071919918060303,6.985682010650635
1752060154980,-6.497264862060547,-1.469441294670105,7.028777599334717
1752060155046,-6.798934459686279,-1.6609774827957153,7.019200801849365
1752060155311,-6.712742805480957,-1.5987281799316406,7.067084789276123
1752060155381,-7.033565998077393,-1.2731167078018188,6.808511257171631
1752060155446,,,6.727108001708984
1752060155447,-6.889914035797119,-1.2779051065444946,6.7749924659729
1752060155563,,,6.976105213165283
1752060155564,-6.712742805480957,-1.1725603342056274,6.995258808135986
1752060155632,-7.153275966644287,-0.6171054840087891,6.684012413024902
1752060155699,,,6.631340026855469
1752060155700,-7.1436991691589355,-0.7846996188163757,
1752060155765,,,6.880337238311768
1752060155766,-6.856395244598389,-0.9666589498519897,6.851606845855713
1752060157338,,-0.9379284977912903,6.818088054656982
1752060157339,-6.798934459686279,-0.8134300112724304,
1752060157344,-7.158064365386963,-0.5835866928100586,6.39192008972168
1752060157412,,,6.348824501037598
1752060157413,-7.27298641204834,-0.6841431260108948,6.363189697265625
1752060157479,,,6.276998519897461
1752060157480,-7.249044418334961,-0.5931634902954102,6.257844924926758
1752060157540,,-0.7368155717849731,6.530783653259277
1752060157541,-7.196371555328369,,
1752060157605,-7.531559944152832,-0.7320271730422974,6.487688064575195
1752060157671,-7.536348342895508,-0.8134300112724304,6.473322868347168
1752060157739,-7.507617950439453,-0.6266822814941406,6.310517311096191
1752060157805,-7.019200801849365,-0.641047477722168,6.564302444458008
1752060160613,,,6.2386908531188965
1752060160614,-7.114968776702881,-0.5883750915527344,6.267421722412109
1752060160618,,-2.015319347381592,7.000047206878662
1752060160619,-6.554725646972656,-2.120664119720459,
1752060160687,,,7.13891077041626
1752060160688,-6.770204067230225,-2.144606113433838,6.9042792320251465
1752060160753,-6.310517311096191,-1.9434932470321655,6.86597204208374
1752060160821,-6.444592475891113,-2.2451627254486084,6.870760440826416
1752060160887,-7.114968776702881,-2.1110873222351074,6.717531204223633
1752060163781,-6.942586421966553,-2.0823569297790527,6.688800811767578
1752060163782,-6.889914035797119,,
1752060163783,,,6.5930328369140625
1752060163785,-7.598597526550293,-2.2834699153900146,8.259397506713867
1752060163854,,,6.051943302154541
1752060163855,-5.989694118499756,-0.7846996188163757,5.539584159851074
1752060163921,,,4.8500542640686035
1752060163922,-4.428674697875977,0.292691171169281,4.620210647583008
1752060166161,,0.5033808946609497,4.639364242553711
1752060166162,-4.567538261413574,-0.8565256595611572,8.867524147033691
1752060166166,,,6.588244438171387
1752060166167,-6.69837760925293,-1.0863690376281738,
1752060166235,-7.0575079917907715,-1.268328309059143,6.727108001708984
1752060166303,,-1.0767922401428223,6.578667640686035
1752060166304,-7.201159954071045,-1.1677719354629517,
1752060166368,,-0.3250128924846649,6.51641845703125
1752060166369,-7.6752119064331055,,
1752060166435,-7.957727909088135,0.7811083197593689,6.344036102294922
1752060166502,-7.996035099029541,1.0301052331924438,5.716754913330078
1752060166568,-7.158064365386963,,
1752060166569,-6.588244438171387,,
1752060166636,-6.16686487197876,-1.9722236394882202,6.420650482177734
1752060166701,,,6.650493621826172
1752060166702,-6.272210121154785,-2.0009541511535645,6.736684799194336
1752060166769,-7.091026782989502,-1.0384849309921265,6.5930328369140625
1752060166834,-7.737461566925049,-0.7559691667556763,6.679224014282227
1752060166901,-7.555501937866211,-0.4926069974899292,6.770204067230225
1752060166968,-7.641693115234375,0.2495955228805542,6.770204067230225
1752060167035,-7.215525150299072,0.08200141042470932,6.650493621826172
1752060167102,,,6.147711277008057
1752060167103,-6.679224014282227,-0.535702645778656,
1752060167168,,,6.1285576820373535
1752060167169,-6.827664852142334,-1.268328309059143,
1752060167239,,,6.353612899780273
1752060167240,-6.8611836433410645,-1.1103110313415527,6.616974830627441
1752060167304,,-0.8804676532745361,6.5930328369140625
1752060167305,-7.263409614562988,-0.6458359360694885,
1752060167370,,,6.7031660079956055
1752060167371,-7.440580368041992,-0.6554127335548401,
1752060167437,-7.129333972930908,-0.22445641458034515,6.5930328369140625
1752060168245,-7.282563209533691,-0.45908817648887634,6.885125637054443
1752060168251,-6.913856029510498,-0.7463923692703247,6.473322868347168
1752060168252,-6.885125637054443,,
1752060168319,-6.952163219451904,-0.4878185987472534,6.741473197937012
1752060168388,-7.191583156585693,-0.6218938827514648,6.746262073516846
1752060168453,,,6.722319602966309
1752060168454,-7.282563209533691,-0.8086416125297546,
1752060168520,-7.517194747924805,-0.8086416125297546,6.415862083435059
1752060168587,-7.48846435546875,-0.823006808757782,6.339247703552246
1752060168653,,-0.8373720645904541,6.64091682434082
1752060168654,-7.177217960357666,,
1752060168720,,-0.6314706802368164,6.616974830627441
1752060168721,-7.186794757843018,,
1752060168788,-6.784569263458252,-0.5692214369773865,6.353612899780273
1752060168854,-7.043142795562744,-0.6075286865234375,6.430227279663086
1752060168921,-7.028777599334717,-0.6171054840087891,6.69837760925293
1752060168988,-6.980893611907959,-0.47824180126190186,6.506841659545898
1752060169090,,-0.71766197681427,6.746262073516846
1752060169091,-7.129333972930908,,
1752060169095,-7.325658798217773,-0.7032967209815979,7.000047206878662
1752060169159,,,7.148487567901611
1752060169160,-7.292140007019043,-0.6937199234962463,6.9042792320251465
1752060169226,,,6.712742805480957
1752060169227,-6.693589210510254,-0.43035775423049927,6.736684799194336
1752060169293,-6.937798023223877,-0.6123170852661133,6.770204067230225
1752060176930,,,6.626551628112793
1752060176931,-7.158064365386963,-0.7655459642410278,6.741473197937012
1752060176933,-6.655282020568848,-1.3640964031219482,6.909067630767822
1752060176935,-7.392696380615234,-1.9147628545761108,5.903502941131592
1752060177006,-8.355165481567383,-1.732803463935852,5.233126163482666
1752060177071,-8.326435089111328,-1.6274585723876953,5.506065368652344
1752060177137,,-1.3401544094085693,6.157288074493408
1752060177138,-7.713519096374512,,
1752060177205,-7.292140007019043,-1.1629834175109863,6.004059314727783
1752060177393,,,5.644928932189941
1752060177394,-7.70394229888916,-1.2539631128311157,5.54437255859375
1752060177462,-7.905055522918701,-1.3593080043792725,6.0423665046691895
1752060177529,,-1.6226701736450195,5.76942777633667
1752060177530,-8.024765968322754,,
1752060177595,,,5.755062103271484
1752060177596,-8.058284759521484,-1.24917471408844,5.774216175079346
1752060209089,,-1.349731206893921,5.946598529815674
1752060209090,-7.555501937866211,-1.8285715579986572,5.367201805114746
1752060209091,-7.349600791931152,-0.6697779297828674,6.578667640686035
1752060209092,-7.296928405761719,-0.7416039705276489,6.305728912353516
1752060209093,-7.416638374328613,-1.004966139793396,6.320094108581543
1752060209094,-7.426215171813965,-0.9331400990486145,6.42543888092041
1752060209095,,,6.3296709060668945
1752060209096,-7.2586212158203125,-0.823006808757782,6.348824501037598
1752060209097,,,6.008847713470459
1752060209098,,-0.8325836658477783,6.30094051361084
1752060209099,-7.555501937866211,-0.15263035893440247,6.83245325088501
1752060209102,-7.909843921661377,-0.04249707981944084,6.257844924926758
1752060209144,-6.789357662200928,-0.22924481332302094,6.554725646972656
1752060209211,-7.239467620849609,-0.018555063754320145,6.9904704093933105
1752060209278,-7.244256019592285,-0.2148796021938324,6.789357662200928
1752060209344,-6.933009624481201,-0.43993455171585083,6.339247703552246
1752060209411,-7.36396598815918,-1.0097545385360718,6.104615688323975
1752060209477,,-1.0241197347640991,6.152499675750732
1752060209478,-7.392696380615234,,
1752060209544,-7.023989200592041,-1.0480618476867676,7.186794757843018
1752060209611,,,6.707954406738281
1752060209612,-7.153275966644287,-0.9522937536239624,6.626551628112793
1752060209677,,,6.454169273376465
1752060209678,-7.4118499755859375,-0.9379284977912903,6.597821235656738
1752060209744,-7.392696380615234,-0.9379284977912903,5.98490571975708
1752060209811,,-0.9522937536239624,6.276998519897461
1752060209812,-7.589020729064941,,
1752060209877,,,6.401496887207031
1752060209878,-7.550713539123535,-0.8134300112724304,
1752060209944,-7.498041152954102,-0.7894880175590515,6.626551628112793
1752060210011,-6.952163219451904,-0.7368155717849731,6.444592475891113
1752060210078,-7.095815181732178,-0.6554127335548401,6.420650482177734
1752060210145,-7.560290336608887,-0.8134300112724304,6.209960460662842
1752060214728,-7.531559944152832,-0.7894880175590515,6.525995254516602
1752060214729,-7.330447196960449,-0.41120412945747375,6.564302444458008
1752060214732,-7.61296272277832,-0.04728548228740692,6.353612899780273
1752060214801,-8.297704696655273,-0.4878185987472534,5.391143798828125
1752060214868,-7.761403560638428,-0.06165069341659546,5.2666449546813965
1752060214963,,,5.745485305786133
1752060214964,-8.321646690368652,0.4554968774318695,
1752060214968,-9.403825759887695,0.35494041442871094,5.146934986114502
1752060215033,-10.174758911132812,0.18734627962112427,3.332130193710327
