timestamp,AccX,AccY,AccZ
1753052323749,1.3114240169525146,3.80378794670105,9.88506031036377
1753052323800,0.07841010391712189,4.019266128540039,
1753052323801,-0.5225345492362976,,8.805274963378906
1753052323846,,3.9246952533721924,
1753052323847,0.5153518915176392,,9.18355941772461
1753052323901,0.3489548861980438,3.7427358627319336,8.039131164550781
1753052323947,0.24600422382354736,3.910329818725586,9.122507095336914
1753052323995,,4.010886192321777,
1753052323996,0.8349778652191162,,8.588600158691406
1753052324045,,3.5679590702056885,
1753052324046,1.688510775566101,3.5224692821502686,8.502408981323242
1753052324096,,3.5883097648620605,
1753052324097,0.3106476664543152,,9.043498039245605
1753052324145,,4.2550950050354,
1753052324146,,4.105457305908203,
1753052324147,0.9187749028205872,,9.48762321472168
1753052324197,-0.04489128291606903,4.08510684967041,8.94773006439209
1753052324246,,4.173692226409912,
1753052324247,-0.23044191300868988,,9.136872291564941
1753052324296,,4.13059663772583,
1753052324297,0.06643909960985184,,7.9194207191467285
1753052324338,0.4854243993759155,4.277839660644531,
1753052324339,0.4315548539161682,,8.843582153320312
1753052324396,,4.204816818237305,
1753052324397,0.10354922711849213,,9.12968921661377
1753052324448,-0.28072014451026917,3.8827965259552,8.880692481994629
1753052324497,,3.4362781047821045,
1753052324498,-1.3317747116088867,,8.838793754577637
1753052324546,,4.1629180908203125,
1753052324547,-0.13108254969120026,,8.036736488342285
1753052324596,-0.7296329736709595,3.911526918411255,9.55466079711914
1753052324645,,3.778648853302002,
1753052324646,0.6973112225532532,,8.478466987609863
1753052324695,,3.403956174850464,
1753052324696,0.23163901269435883,4.001309394836426,8.946533203125
1753052324746,,4.581903457641602,
1753052324747,0.20051439106464386,,
1753052324748,,,7.583035469055176
1753052324795,,4.204816818237305,
1753052324796,0.7248445749282837,3.906738519668579,9.895833969116211
1753052324846,-0.12749123573303223,4.081515312194824,9.21707820892334
1753052324896,0.19452889263629913,4.226364612579346,9.03870964050293
1753052324945,-0.2495955228805542,3.9606082439422607,8.946533203125
1753052324995,-0.010175357572734356,4.08510684967041,
1753052324996,0.01496376097202301,,9.458892822265625
1753052325046,1.1426327228546143,3.9486372470855713,
1753052325047,,,8.101380348205566
1753052325096,1.081580638885498,3.7211880683898926,
1753052325097,,,9.443329811096191
1753052325145,,4.726752758026123,
1753052325146,-0.12749123573303223,,9.303269386291504
1753052325195,,4.128202438354492,
1753052325196,-1.1103110313415527,4.282628059387207,8.653243064880371
1753052325225,,4.293402194976807,
1753052325226,-0.11791443079710007,,8.087015151977539
1753052325247,,4.557961463928223,
1753052325248,-0.7966706156730652,,7.130531311035156
1753052325297,-0.6326677799224854,4.331709384918213,7.572261333465576
1753052325346,,4.6070427894592285,
1753052325347,0.14903905987739563,,8.746617317199707
1753052325397,-1.14742112159729,4.355651378631592,8.266579627990723
1753052325447,,3.997718334197998,
1753052325448,0.028131870552897453,4.399944305419922,8.983643531799316
1753052325497,-0.9738415479660034,4.397550106048584,8.203133583068848
1753052325547,0.03411737456917763,4.08510684967041,8.867524147033691
1753052325597,-0.5692214369773865,4.216787815093994,8.877100944519043
1753052325648,0.07481880486011505,3.904344320297241,8.49522590637207
1753052325696,,3.9653966426849365,
1753052325697,-0.42437225580215454,,8.7885160446167
1753052325747,-0.5512649416923523,3.4985272884368896,8.40424633026123
1753052325797,,4.057573318481445,
1753052325798,-0.9798270463943481,,9.803657531738281
1753052325846,-0.7882909178733826,4.565144062042236,10.129268646240234
1753052325896,,3.626616954803467,
1753052325898,-0.45908817648887634,,7.946953773498535
1753052325936,,3.4111387729644775,
1753052325937,-0.3585317134857178,,10.536283493041992
1753052325991,,3.2543187141418457,
1753052325992,1.026513934135437,,9.057863235473633
1753052325994,,3.2339680194854736,
1753052325995,1.935113549232483,,8.70950698852539
1753052326049,1.7962498664855957,3.1417911052703857,8.934561729431152
1753052326097,,3.5176808834075928,
1753052326098,0.31543606519699097,,9.06983470916748
1753052326147,,3.316567897796631,
1753052326148,-1.3389573097229004,,10.259753227233887
1753052326197,0.4183867573738098,3.357269287109375,10.993576049804688
1753052326247,0.3992331326007843,3.5883097648620605,7.948151111602783
1753052326297,-0.5859808921813965,3.0196869373321533,8.201936721801758
1753052326346,,3.7068228721618652,
1753052326347,-0.8708908557891846,,7.329249858856201
1753052326397,,3.737947463989258,
1753052326398,-0.35494041442871094,,10.153210639953613
1753052326447,-0.9295487999916077,3.5871126651763916,10.25735855102539
1753052326498,,3.9881415367126465,
1753052326499,-0.679354727268219,3.7858314514160156,9.777320861816406
1753052326548,-1.3617022037506104,2.3756465911865234,8.741828918457031
1753052326599,,2.764704465866089,
1753052326600,,3.4135329723358154,
1753052326601,-0.9882067441940308,2.9502551555633545,9.575011253356934
1753052326652,,3.244741916656494,
1753052326653,,3.362057685852051,
1753052326655,0.6865373253822327,,
1753052326656,0.41958385705947876,,11.027094841003418
1753052326703,0.2867056429386139,2.848501443862915,8.441356658935547
1753052326746,,2.494159698486328,
1753052326747,-0.3884592354297638,2.081159830093384,8.106168746948242
1753052326797,1.0516531467437744,2.0201077461242676,9.873088836669922
1753052326847,3.115454912185669,1.7028759717941284,8.768165588378906
1753052326897,0.8026561141014099,1.8704700469970703,7.239467620849609
1753052326913,,2.892794132232666,
1753052326914,-0.010175357572734356,,12.261305809020996
1753052326949,,2.9945478439331055,
1753052326950,3.686472177505493,,9.440936088562012
1753052326997,3.8528690338134766,3.3405098915100098,6.830059051513672
1753052327047,2.137423515319824,2.1314380168914795,5.8221001625061035
1753052327097,,2.689286947250366,
1753052327098,5.740696907043457,1.149815320968628,10.004770278930664
1753052327160,,1.9183541536331177,
1753052327161,4.350862979888916,2.4869771003723145,8.899846076965332
1753052327197,7.144896507263184,3.6158430576324463,2.5049335956573486
1753052327220,12.607267379760742,5.7526679039001465,5.708375453948975
1753052327249,11.55860710144043,7.6117658615112305,5.603030681610107
1753052327297,8.581417083740234,5.960963726043701,3.9701850414276123
1753052327347,-1.4610615968704224,5.835268020629883,3.6290111541748047
1753052327396,3.9031472206115723,5.80414342880249,1.5747861862182617
1753052327397,6.174047470092773,6.225522994995117,
1753052327398,,,-9.378686904907227
1753052327449,,6.181230068206787,
1753052327450,5.648520469665527,4.420294761657715,-7.650073051452637
1753052327498,1.0372878313064575,0.8421604633331299,0.11432313174009323
1753052327545,-0.8984242081642151,-7.379528045654297,-1.1641805171966553
1753052327597,-0.32381579279899597,-17.920001983642578,2.4378957748413086
1753052327646,35.4647102355957,-18.21329116821289,5.615001678466797
1753052327695,29.12007713317871,-8.9249849319458,1.9051860570907593
1753052327746,19.087175369262695,-2.8640637397766113,12.311583518981934
1753052327796,14.892533302307129,-8.271368026733398,
1753052327797,7.76020622253418,,16.88450813293457
1753052327845,3.132214307785034,-12.121244430541992,-12.193070411682129
1753052327897,,-8.444948196411133,
1753052327902,11.725004196166992,-3.508104085922241,-1.467047095298767
1753052327947,1.1617863178253174,-4.894346714019775,-7.513603687286377
1753052327996,,1.7591396570205688,
1753052327998,-0.3130418658256531,-0.7439981698989868,-1.027711033821106
1753052328048,,-2.2810757160186768,
1753052328049,4.712387561798096,,-1.775899052619934
1753052328099,-1.3880383968353271,-2.1146786212921143,1.326986312866211
1753052328159,13.098078727722168,-11.993154525756836,-3.7606923580169678
1753052328161,,-15.288773536682129,
1753052328162,11.37904167175293,,-1.7794904708862305
1753052328172,-0.1346738487482071,-12.434885025024414,1.7938556671142578
1753052328214,-7.465719223022461,-8.701127052307129,3.1980550289154053
1753052328247,,-9.302072525024414,
1753052328248,6.809708118438721,,-4.022857189178467
1753052328262,,-6.666056156158447,
1753052328263,5.016450881958008,,0.1322796493768692
1753052328301,5.304952621459961,-5.981314182281494,
1753052328303,6.903081893920898,,
1753052328304,,,0.44352585077285767
1753052328362,,-5.476137638092041,
1753052328363,13.32073974609375,-2.825756549835205,3.491344690322876
1753052328410,,-21.361665725708008,
1753052328411,-15.112799644470215,,-2.427121877670288
1753052328450,,-12.285247802734375,
1753052328451,3.866037130355835,-7.008427143096924,1.6238672733306885
1753052328510,,-3.625419855117798,
1753052328511,3.71280837059021,,2.1338322162628174
1753052328560,,-6.180033206939697,
1753052328561,1.2635399103164673,,-0.8852560520172119
1753052328610,2.4869771003723145,-8.241440773010254,3.6134488582611084
1753052328611,,,4.6740803718566895
1753052328660,,-11.511919975280762,
1753052328661,-1.6454150676727295,-13.477560043334961,-0.33937808871269226
1753052328710,,-28.012758255004883,
1753052328711,-1.975814938545227,,3.287837505340576
1753052328760,,6.011241912841797,
1753052328761,5.427056789398193,-8.411429405212402,-0.8852560520172119
1753052328810,,-19.156606674194336,
1753052328811,0.2890998423099518,,1.789067268371582
1753052328863,,-9.967659950256348,
1753052328864,1.2731167078018188,,3.4745852947235107
1753052328910,-0.1538274586200714,-5.677250862121582,
1753052328911,-0.5225345492362976,,1.0324994325637817
1753052328960,,-8.684368133544922,
1753052328961,0.21966800093650818,-8.51916790008545,2.672527551651001
1753052329011,0.38965633511543274,-8.179191589355469,1.7818846702575684
1753052329012,,,1.1713632345199585
1753052329060,,-14.068927764892578,
1753052329061,-0.21128830313682556,,2.3038206100463867
1753052329111,-0.5943605899810791,-9.029132843017578,-1.4814122915267944
1753052329160,,-9.95329475402832,
1753052329161,1.1534066200256348,-10.582969665527344,-0.5811924338340759
1753052329210,4.404732704162598,-10.678738594055176,
1753052329211,3.731961965560913,,-0.6386532783508301
1753052329260,,-9.814431190490723,
1753052329261,1.3377602100372314,,0.8744821548461914
1753052329310,1.670554280281067,-9.752182006835938,0.35494041442871094
1753052329363,,-9.261370658874512,
1753052329364,-0.3477577865123749,,-0.3489548861980438
1753052329414,0.9020155072212219,-10.293272018432617,
1753052329415,0.679354727268219,,-0.18136078119277954
1753052329460,-0.14185644686222076,-9.838373184204102,0.8577227592468262
1753052329510,,-9.409811019897461,
1753052329511,-0.9510966539382935,,-0.70090252161026
1753052329560,-1.3365631103515625,-10.250176429748535,
1753052329561,-0.1322796493768692,,0.046088382601737976
1753052329611,1.73519766330719,-9.345168113708496,-0.09038111567497253
1753052329660,,-9.5007905960083,
1753052329661,2.7551276683807373,-9.61571216583252,1.2862848043441772
1753052329710,,-9.788095474243164,
1753052329711,2.8197710514068604,,0.07960720360279083
1753052329760,,-10.001178741455078,
1753052329761,0.6434416770935059,,0.5704185366630554
1753052329810,,-9.548674583435059,
1753052329811,0.578798234462738,,0.5440823435783386
1753052329863,1.6466121673583984,-9.706692695617676,
1753052329864,1.8213889598846436,,0.41718965768814087
1753052329910,,-9.625288963317871,
1753052329911,2.1302409172058105,,-0.03292027488350868
1753052329960,,-10.017938613891602,
1753052329961,1.632246971130371,-9.6803560256958,0.5704185366630554
1753052330012,,-9.625288963317871,
1753052330013,1.6609774827957153,-9.55825138092041,-0.076015904545784
1753052330060,,-9.864709854125977,
1753052330061,0.8277952671051025,-10.161590576171875,0.6206967830657959
1753052330110,,-10.161590576171875,
1753052330111,1.4047977924346924,-9.965266227722168,0.8074445128440857
1753052330162,,-9.807249069213867,
1753052330163,1.668160080909729,,0.23044191300868988
1753052330210,,-9.050681114196777,
1753052330211,1.5053542852401733,-9.084199905395508,0.6039373874664307
1753052330260,,-9.867103576660156,
1753052330261,1.0911574363708496,,-0.0017956512747332454
1753052330310,,-10.123283386230469,
1753052330311,1.2443863153457642,,-0.8277952671051025
1753052330362,,-10.092158317565918,
1753052330363,0.06404489278793335,,-1.5245078802108765
1753052330410,-1.4754267930984497,-9.955689430236816,-0.6697779297828674
1753052330456,-4.125808238983154,-9.694721221923828,-0.15981295704841614
1753052330512,-4.709993362426758,-11.485584259033203,0.35494041442871094
1753052330563,,-11.80640697479248,
1753052330564,-8.631695747375488,-10.34594440460205,2.7922377586364746
1753052330615,-3.7044286727905273,-9.948506355285645,2.035670042037964
1753052330664,-0.5776011347770691,-8.636484146118164,-0.6123170852661133
1753052330714,,-7.6548614501953125,
1753052330715,-2.1912930011749268,,-0.5500678420066833
1753052330763,,-7.549516677856445,
1753052330764,-3.7427358627319336,-7.5782470703125,1.6286556720733643
1753052330814,,-7.855974197387695,
1753052330815,-3.153762102127075,-8.248623847961426,2.2607250213623047
1753052330864,-3.268683910369873,-8.109759330749512,3.5488054752349854
1753052330915,-3.3405098915100098,-8.00920295715332,3.6972460746765137
1753052330963,,-9.009979248046875,
1753052330964,-2.4881742000579834,,4.0084919929504395
1753052331014,,-9.876680374145508,
1753052331015,-2.234388828277588,-10.61888313293457,4.573523998260498
1753052331063,,-9.804854393005371,
1753052331064,-3.383605480194092,-8.909422874450684,3.4147300720214844
1753052331115,-4.614225387573242,-8.612542152404785,2.011728048324585
1753052331163,,-10.125677108764648,
1753052331164,-4.298190593719482,-9.790489196777344,3.5248634815216064
1753052338919,,-8.990825653076172,
1753052338920,-2.0236990451812744,-6.649296760559082,
1753052338921,-5.677250862121582,,0.8242039084434509
1753052338922,-3.153762102127075,-10.254964828491211,0.383670836687088
1753052338923,4.234744071960449,,
1753052338971,,-9.124900817871094,
1753052338972,-4.4705729484558105,,0.7571662664413452
1753052339020,,-9.115324020385742,
1753052339021,-3.9869444370269775,-8.995614051818848,-0.008978256024420261
1753052341477,-4.662109375,-8.871115684509277,
1753052341478,0.7679402232170105,,0.08200141042470932
1753052341479,-1.3533225059509277,-9.891045570373535,-0.6266822814941406
1753052341530,,-8.152854919433594,
1753052341531,-5.366004467010498,,1.3365631103515625
1753052341581,-0.74040687084198,-11.768099784851074,-0.36810851097106934
1753052341582,,,-2.5468320846557617
1753052346899,,-9.847949981689453,
1753052346900,-2.847304344177246,-9.622895240783691,-1.9387048482894897
1753052346901,,,-1.1773487329483032
1753052346902,,,3.5248634815216064
1753052346903,,,1.5999252796173096
1753052346905,-1.7747019529342651,-9.48882007598877,
1753052346906,3.0376434326171875,,
1753052346956,-4.647744178771973,-3.8145618438720703,6.067505836486816
1753052346957,,,5.550358295440674
1753052347005,-5.19362211227417,-2.9526493549346924,
1753052347006,,,3.951031446456909
1753052348549,-2.828150749206543,-2.8999767303466797,
1753052348550,-3.024475336074829,,5.205593109130859
1753052348597,,-6.476913928985596,
1753052348598,,-6.510433197021484,
1753052348599,-2.7706899642944336,,6.52719259262085
1753052348647,-2.6797101497650146,-6.874351501464844,6.68520975112915
1753052348697,-2.646191358566284,-6.826467514038086,
1753052348698,-2.6557681560516357,,6.474519729614258
1753052348746,,-6.9461774826049805,
1753052348747,-2.65097975730896,,6.455366134643555
1753052348798,-2.2918496131896973,-6.960542678833008,6.737882137298584
1753052348855,,-6.883928298950195,
1753052348856,-2.8329391479492188,,6.177639007568359
1753052348860,-2.8568811416625977,-6.701969146728516,6.033987045288086
1753052348907,-2.9047651290893555,-6.955754280090332,6.129755020141602
1753052348908,,,6.12017822265625
1753052348958,,-7.1712327003479,
1753052348959,-3.1489737033843994,-7.108983516693115,6.134543418884277
1753052349007,,-7.108983516693115,
1753052349008,-3.4985272884368896,,5.904699802398682
1753052349058,-3.4123358726501465,-6.491279125213623,5.871181011199951
1753052350995,-2.7515363693237305,-6.692392349243164,7.954136371612549
1753052350996,,,6.555922985076904
1753052351002,-4.010886192321777,-7.176021099090576,
1753052351003,,,5.531204700469971
1753052351055,,-7.128137111663818,
1753052351056,-3.2543187141418457,-7.085041522979736,5.919064998626709
1753052351105,-3.072359323501587,-6.979696273803711,5.7993550300598145
1753052351281,,-6.898293495178223,
1753052351282,-3.158550500869751,,5.828085422515869
1753052351288,,-6.950965881347656,
1753052351289,-2.981379747390747,,6.254253387451172
1753052351340,,-6.797737121582031,
1753052351341,-3.6278140544891357,-6.826467514038086,6.12017822265625
1753052351391,-3.2974143028259277,-6.9940619468688965,
1753052351392,,,5.871181011199951
1753052351439,,-6.907870292663574,
1753052351440,-3.2591071128845215,-6.8791399002075195,5.89512300491333
1753052351490,,-6.869563102722168,
1753052351491,-3.1441853046417236,-7.056311130523682,5.832873821258545
1753052351540,-2.895188331604004,-7.3436150550842285,6.450577735900879
1753052351591,-2.876034736633301,-7.094618320465088,5.741894245147705
1753052351639,,-7.04673433303833,
1753052351640,-3.1010897159576416,,5.8855462074279785
1753052351691,-3.287837505340576,-7.267000675201416,6.005256175994873
1753052351739,,-7.1472907066345215,
1753052351740,-3.2351651191711426,-7.0132155418396,5.962160587310791
1753052351791,,-6.91265869140625,
1753052351792,-3.1250317096710205,,5.890334606170654
1753052351841,-3.1968579292297363,-7.041945934295654,6.02919864654541
1753052351890,,-6.955754280090332,
1753052351891,-3.1489737033843994,-7.032369136810303,5.957372188568115
1753052351940,,-7.041945934295654,
1753052351941,-3.0388405323028564,,6.201581001281738
1753052351991,-3.3022027015686035,-7.13771390914917,
1753052351992,,,5.823297023773193
1753052352039,,-7.1041951179504395,
1753052352040,-3.2351651191711426,-7.0371575355529785,5.828085422515869
1753052352091,-3.110666513442993,-6.950965881347656,6.02919864654541
1753052352140,-3.053205728530884,-7.113771915435791,6.330867767333984
1753052352191,-3.0819361209869385,-7.1041951179504395,5.8616042137146
1753052352239,,-7.003638744354248,
1753052352240,-3.3022027015686035,-6.9940619468688965,5.80414342880249
1753052352290,,-7.008427143096924,
1753052352291,-3.426701068878174,-6.917447090148926,5.923853397369385
1753052352340,,-6.773795127868652,
1753052352341,-3.488950490951538,-6.73069953918457,5.899911403656006
1753052352391,,-6.644508361816406,
1753052352392,-3.268683910369873,-6.630143165588379,6.230311393737793
1753052352439,-3.4602200984954834,-6.615777969360352,
1753052352440,-3.469796895980835,,5.899911403656006
1753052352491,-3.7427358627319336,-6.783371925354004,
1753052352492,,,5.684433460235596
1753052352539,,-6.82167911529541,
1753052352540,-3.6709096431732178,-6.826467514038086,5.962160587310791
1753052352591,-4.22157621383667,-6.869563102722168,5.9956793785095215
1753052352639,,-7.377133846282959,
1753052352640,-2.9095535278320312,-7.281365871429443,5.909488201141357
1753052352691,-2.895188331604004,-7.003638744354248,
1753052352692,,,7.149684906005859
1753052352740,-3.09151291847229,-7.5447282791137695,5.856815814971924
1753052352791,-3.053205728530884,-7.209539890289307,5.856815814971924
1753052352792,,,4.7602715492248535
1753052352840,,-7.1041951179504395,
1753052352841,-3.666121244430542,-7.13771390914917,5.425859451293945
1753052352891,-3.6278140544891357,-7.324461460113525,5.957372188568115
1753052352939,-4.226364612579346,-7.472901821136475,
1753052352940,-4.173692226409912,,5.741894245147705
1753052352991,-3.757101058959961,-6.749853134155273,
1753052352992,-3.579930067062378,,5.119401931762695
1753052353039,,-7.027580738067627,
1753052353040,-4.269460201263428,-7.089829921722412,5.737105846405029
1753052353091,-3.8768110275268555,-7.123348712921143,
1753052353092,-3.7427358627319336,,5.813720226287842
1753052353140,-3.3500866889953613,-7.132925510406494,6.134543418884277
1753052353141,,,5.401917457580566
1753052353191,-2.9526493549346924,-7.415441036224365,5.339668273925781
1753052353239,,-7.089829921722412,
1753052353240,-2.5504233837127686,-7.04673433303833,5.382763862609863
1753052353964,-3.4745852947235107,-7.44417142868042,
1753052353965,-3.7714662551879883,,5.512050628662109
1753052353971,-3.493738889694214,-7.223905086517334,5.569511890411377
1753052354021,,-7.276577472686768,
1753052354022,-3.139396905899048,-7.817667007446289,4.477755546569824
1753052354073,-4.178480625152588,-8.665214538574219,5.128978729248047
1753052354074,,,5.037999153137207
1753052354792,,-6.409876346588135,
1753052354793,-4.834491729736328,,5.263053894042969
1753052354798,-2.540846586227417,-6.4386067390441895,6.699574947357178
1753052354849,-2.603095769882202,-6.606201171875,
1753052354850,,,6.656479358673096
1753052354899,,-6.7259111404418945,
1753052354900,-2.852092742919922,,6.709151744842529
1753052355179,-2.7898435592651367,-6.563105583190918,6.522404193878174
1753052355183,-2.9526493549346924,-6.395511150360107,6.646902561187744
1753052355230,,-6.476913928985596,
1753052355231,-2.7036523818969727,,6.86716890335083
1753052355281,-2.65097975730896,-6.510433197021484,6.852803707122803
1753052356017,-2.603095769882202,-6.577470779418945,6.886322498321533
1753052356022,,-6.213551998138428,
1753052356023,-2.722805976867676,-6.232705593109131,6.656479358673096
1753052356071,-2.7898435592651367,-6.2614359855651855,
1753052356072,-2.7706899642944336,,6.680421352386475
1753052356121,-2.7898435592651367,-6.07468843460083,6.531980991363525
1753052356261,,-6.223128795623779,
1753052356262,-2.765901565551758,-6.314108371734619,6.8144965171813965
1753052356268,-2.603095769882202,-6.462548732757568,7.020398139953613
1753052356320,-2.449866771697998,-6.706757545471191,7.173626899719238
1753052356369,,-6.553528785705566,
1753052356370,-2.2679076194763184,-6.539163589477539,7.097012519836426
1753052356418,,-6.318896770477295,
1753052356419,-2.3684639930725098,-6.318896770477295,6.484096527099609
1753052356469,,-6.405087947845459,
1753052356470,-2.583942174911499,-6.4817023277282715,6.689998149871826
1753052358775,,-6.749853134155273,
1753052358776,,-6.251859188079834,
1753052358777,-2.5695769786834717,-6.558317184448242,6.991667747497559
1753052358778,,,6.484096527099609
1753052358779,-2.871246337890625,-6.601412773132324,6.536769390106201
1753052358827,-2.7036523818969727,-6.6828155517578125,6.876745700836182
1753052358877,-2.8377275466918945,-6.400299549102783,6.589441776275635
1753052359612,,-6.701969146728516,
1753052359613,-2.8185739517211914,-6.596624374389648,
1753052359614,,,6.637325763702393
1753052359618,-2.8377275466918945,-6.610989570617676,6.7714009284973145
1753052359669,,-6.366780757904053,
1753052359670,-2.7706899642944336,-6.505644798278809,6.891110897064209
1753052359720,-2.9909565448760986,-6.558317184448242,6.713940143585205
1753052380367,,-6.582259178161621,
1753052380372,-2.765901565551758,-6.678027153015137,
1753052380373,-1.1186907291412354,,6.699574947357178
1753052380374,-1.1617863178253174,-5.701192855834961,8.160037994384766
1753052380380,0.13587094843387604,-5.169680118560791,9.907805442810059
1753052380431,,-4.374804973602295,
1753052380432,-0.4866214990615845,,8.801684379577637
1753052380480,0.5333084464073181,-4.025251388549805,
1753052380481,0.24600422382354736,,8.18876838684082
1753052380531,-0.5632359385490417,-3.7714662551879883,9.419387817382812
1753052380581,0.6338648796081543,-3.733159065246582,8.241440773010254
1753052380629,0.20769700407981873,-4.015674591064453,8.351573944091797
1753052380682,0.6338648796081543,-4.609436988830566,8.399457931518555
1753052380730,,-5.40910005569458,
1753052380731,-0.12749123573303223,-5.662885665893555,8.207921981811523
1753052380781,-0.8026561141014099,-5.562329292297363,8.06427001953125
1753052380830,-1.8369512557983398,-5.911882400512695,8.624512672424316
1753052380881,-1.449090600013733,-4.925471305847168,7.9876556396484375
1753052380930,-1.3389573097229004,-4.456207752227783,9.098565101623535
1753052380980,,-4.173692226409912,
1753052380981,0.2555810213088989,-4.283825397491455,9.117718696594238
1753052381042,0.5907692909240723,-4.6285905838012695,8.686761856079102
1753052381081,-0.5153518915176392,-4.729146957397461,7.944559574127197
1753052381129,,-4.360439777374268,
1753052381130,-0.4818331003189087,-4.240729808807373,8.251017570495605
1753052381181,-0.35733461380004883,-3.996521234512329,8.940547943115234
1753052381231,0.11192893236875534,-3.4793736934661865,9.270947456359863
1753052381281,0.1646013706922531,-3.4075474739074707,9.347561836242676
1753052381330,-0.3190273642539978,-4.183269023895264,8.97885513305664
1753052381381,-0.1562216579914093,-4.0970778465271,8.725069999694824
1753052381430,-0.4578910768032074,-4.015674591064453,9.041104316711426
1753052381483,,-3.757101058959961,
1753052381484,0.10714052617549896,-3.287837505340576,8.672396659851074
1753052381530,0.08319851011037827,-3.3213562965393066,9.189544677734375
1753052381581,0.34177228808403015,-4.001309394836426,8.959701538085938
1753052381630,,-3.7044286727905273,
1753052381632,0.739209771156311,,
1753052381633,0.11671733111143112,,8.844779968261719
1753052381681,-0.3669114112854004,-4.633378982543945,8.356362342834473
1753052381730,-0.9032126069068909,-4.580706596374512,7.551910877227783
1753052381781,-1.813009262084961,-5.2031989097595215,7.106589317321777
1753052381830,-1.1953052282333374,-5.117007732391357,8.590993881225586
1753052381880,,-4.058770656585693,
1753052381881,0.3130418658256531,-3.824138641357422,8.8878755569458
1753052381930,1.9506758451461792,-4.140173435211182,9.596558570861816
1753052381981,,-3.6134488582611084,
1753052381982,1.754351258277893,-3.5033156871795654,9.73542308807373
1753052382030,0.34177228808403015,-4.140173435211182,8.557475090026855
1753052382081,0.5476736426353455,-4.709993362426758,9.007585525512695
1753052382133,,-4.039616584777832,
1753052382134,-0.09876082092523575,-3.9869444370269775,8.466495513916016
1753052382180,,-4.053982257843018,
1753052382181,-0.74040687084198,-4.154538631439209,7.954136371612549
1753052382230,0.4231751561164856,-4.140173435211182,8.806472778320312
1753052382280,,-4.590283393859863,
1753052382281,0.1933317929506302,-4.729146957397461,8.67718505859375
1753052382330,-0.228047713637352,-4.556764602661133,8.720281600952148
1753052382381,-0.18495208024978638,-4.657320976257324,8.796895980834961
1753052382382,,,8.825626373291016
1753052382430,0.5380968451499939,-4.623802185058594,8.988431930541992
1753052382481,0.12629413604736328,-3.800196647644043,8.227075576782227
1753052382530,0.04967968538403511,-4.192845821380615,9.242217063903809
1753052382581,0.9355342984199524,-4.3173441886901855,9.256582260131836
1753052382630,-0.21368250250816345,-3.5895068645477295,8.576628684997559
1753052382680,,-3.5703532695770264,
1753052382681,0.8301894664764404,-3.599083662033081,8.91181755065918
1753052382730,0.41359832882881165,-3.134608507156372,8.825626373291016
1753052382781,0.6242880821228027,-3.469796895980835,9.28531265258789
1753052382830,0.1646013706922531,-3.158550500869751,9.117718696594238
1753052382880,,-3.5847184658050537,
1753052382881,0.8445546627044678,-3.488950490951538,10.16637897491455
1753052382930,,-3.244741916656494,
1753052382931,0.1933317929506302,,9.764153480529785
1753052382981,,-3.206434726715088,
1753052382982,0.7487865686416626,,10.420164108276367
1753052383030,,-3.1010897159576416,
1753052383031,0.1933317929506302,-2.627037763595581,9.639654159545898
1753052383080,,-2.3493103981018066,
1753052383081,-0.7930793166160583,-2.588730573654175,9.170391082763672
1753052383130,,-2.6557681560516357,
1753052383131,-0.5680243372917175,,9.721057891845703
1753052383181,-0.4339490532875061,-1.7172411680221558,
1753052383182,,,8.983643531799316
1753052383230,-0.3477577865123749,-2.339733600616455,
1753052383231,,,9.697115898132324
1753052383281,0.284311443567276,-2.057217836380005,8.054693222045898
1753052383282,,,8.581417083740234
1753052383330,-1.71245276927948,-2.8137855529785156,
1753052383331,-1.1522095203399658,,7.934982776641846
1753052383381,,-2.0620062351226807,
1753052383382,-1.6502034664154053,,8.31326675415039
1753052383430,,-1.4826093912124634,
1753052383431,-2.210446834564209,,8.140884399414062
1753052383481,,-0.2041056901216507,
1753052383482,-4.044404983520508,,7.4752960205078125
1753052383530,,-0.5392939448356628,
1753052383531,1.3808557987213135,,10.8319673538208
1753052383581,,0.05925649031996727,
1753052383582,0.7535749673843384,-0.01735796220600605,9.989208221435547
1753052383630,0.4183867573738098,-1.1522095203399658,
1753052383631,,,9.979631423950195
1753052383681,,-1.3964180946350098,
1753052383682,-1.0085574388504028,-1.0708067417144775,8.183979988098145
1753052383730,,-1.5783774852752686,
1753052383731,0.4040215313434601,,10.415375709533691
1753052383782,0.45669397711753845,-2.670133352279663,
1753052383783,,,13.096881866455078
1753052383830,,-0.49140989780426025,
1753052383831,0.5045779943466187,,
1753052383832,0.6961141228675842,,7.844003200531006
1753052383881,0.9546879529953003,-0.7164648771286011,8.27974796295166
1753052383882,,,8.514379501342773
1753052383931,1.9219454526901245,0.4231751561164856,7.925405979156494
1753052383981,,-0.28550854325294495,
1753052383982,1.3856441974639893,,8.274959564208984
1753052384030,0.020949264988303185,-1.9279309511184692,
1753052384031,0.011372458189725876,,8.399457931518555
1753052384081,,-2.5456349849700928,
1753052384082,0.06883329898118973,-2.65097975730896,8.42818832397461
1753052384130,,-3.560776472091675,
1753052384131,-0.060453593730926514,,10.659584045410156
1753052384181,,-3.316567897796631,
1753052384182,-0.8744821548461914,-3.115454912185669,8.274959564208984
1753052384230,0.5668272376060486,-3.4123358726501465,
1753052384231,,,9.381080627441406
1753052384281,,-6.3715691566467285,
1753052384282,-3.1920695304870605,-7.204751491546631,11.59332275390625
1753052384330,,-8.727463722229004,
1753052384331,-3.958214044570923,,9.610923767089844
1753052384382,-3.2591071128845215,-5.840056419372559,9.563039779663086
1753052384430,,-2.2679076194763184,
1753052384431,-1.2862848043441772,,6.383540153503418
1753052384481,,-2.2679076194763184,
1753052384482,-0.19931729137897491,,6.603806972503662
1753052384530,,-1.1857284307479858,
1753052384531,0.025737667456269264,-0.639850378036499,4.966172695159912
1753052384582,0.7296329736709595,-0.15143325924873352,6.584653377532959
1753052384630,2.9753942489624023,0.4183867573738098,
1753052384631,0.29388827085494995,,6.934206485748291
1753052384682,,-0.12749123573303223,
1753052384683,-0.7643488645553589,-1.7268179655075073,9.85034465789795
1753052384730,2.1948843002319336,-5.059546947479248,17.00421905517578
1753052384731,,,19.451093673706055
1753052384782,0.3034650683403015,-5.878363609313965,20.83972930908203
1753052384830,-0.40521863102912903,-4.408323764801025,
1753052384831,,,12.943653106689453
1753052384881,,-3.0771477222442627,
1753052384882,-0.23283611238002777,,10.420164108276367
1753052384930,,-0.6590040326118469,
1753052384931,1.4957774877548218,,6.431424140930176
1753052384982,1.5963339805603027,-0.041299980133771896,6.728305339813232
1753052385070,,1.0791864395141602,
1753052385071,2.889202833175659,,7.068282127380371
1753052385075,1.246780514717102,-0.14185644686222076,6.986878871917725
1753052385122,,-1.7076643705368042,
1753052385123,-0.37648820877075195,,7.978078842163086
1753052385172,,-1.2814964056015015,
1753052385173,1.0887632369995117,,10.080187797546387
1753052385223,2.0225019454956055,-0.884058952331543,11.631629943847656
1753052385272,0.8158242106437683,-1.789067268371582,10.85590934753418
1753052393214,0.8445546627044678,-3.5895068645477295,
1753052393215,0.5620388388633728,,12.929287910461426
1753052393216,,-1.3581109046936035,9.476848602294922
1753052393217,-0.5392939448356628,-1.7651251554489136,8.758588790893555
1753052393220,0.2172738015651703,-1.7986440658569336,8.863933563232422
1753052393272,,-1.7651251554489136,
1753052393273,0.882861852645874,-2.229600429534912,10.640430450439453
1753052393322,0.22206220030784607,-1.9183541536331177,9.448118209838867
1753052393374,0.945111095905304,-2.8999767303466797,10.8319673538208
1753052393421,-0.35733461380004883,-2.9718029499053955,10.506355285644531
1753052393472,,-2.358887195587158,
1753052393473,0.5620388388633728,,9.361927032470703
1753052393522,,-2.425924777984619,
1753052393523,0.4471171796321869,,9.64923095703125
1753052393582,,-2.914341926574707,
1753052393583,-0.6925228238105774,-3.1968579292297363,8.456918716430664
1753052393629,,-3.3261446952819824,
1753052393630,0.23163901269435883,-3.244741916656494,9.146449089050293
1753052393679,,-3.848080635070801,
1753052393680,-1.3389573097229004,,9.443329811096191
1753052393730,-1.1953052282333374,-3.5942952632904053,7.83921480178833
1753052393731,,,8.744223594665527
1753052393779,,-3.843292236328125,
1753052393780,-0.08439560979604721,,9.893440246582031
1753052398884,,-3.6900634765625,
1753052398885,-1.3006501197814941,-3.9199066162109375,7.949347972869873
1753052398898,,-4.595071792602539,
1753052398899,-1.932719349861145,-3.8576574325561523,
1753052398900,-1.1761516332626343,,9.170391082763672
1753052398901,,-3.90554141998291,8.916605949401855
1753052398952,,-2.876034736633301,
1753052398953,,-2.406771183013916,
1753052398955,-1.0708067417144775,-2.3349452018737793,9.797672271728516
1753052398999,0.5907692909240723,-2.4881742000579834,9.232640266418457
1753052399049,,-2.478597402572632,
1753052399050,0.08319851011037827,-2.0907366275787354,9.385869026184082
1753052399099,,-1.7172411680221558,
1753052399100,0.25079262256622314,,8.892663955688477
1753052399150,,-1.7938556671142578,
1753052399151,1.3569138050079346,-1.6645687818527222,9.40023422241211
1753052399199,0.5716156363487244,-1.3772644996643066,8.46170711517334
1753052399250,0.8637082576751709,-1.9806033372879028,9.692327499389648
1753052399299,0.22685061395168304,-3.0771477222442627,9.247005462646484
1753052399300,,,9.8599214553833
1753052399352,-0.21368250250816345,-3.3500866889953613,
1753052399353,0.3130418658256531,,10.482413291931152
1753052399401,0.3130418658256531,-3.0101101398468018,8.959701538085938
1753052399450,,-2.521692991256714,
1753052399451,0.7344213724136353,,10.568604469299316
1753052399499,-0.16101007163524628,-2.962226152420044,9.543886184692383
1753052399550,,-3.3692402839660645,
1753052399551,-0.4531026780605316,,10.061034202575684
1753052399721,,-3.268683910369873,
1753052399722,-0.6590040326118469,,9.620500564575195
1753052399729,,-3.115454912185669,
1753052399730,-0.38127660751342773,-3.067570924758911,8.634089469909668
1753052399779,-0.35733461380004883,-2.785055160522461,
1753052399780,-0.10833762586116791,,8.782530784606934
1753052399830,,-2.6844985485076904,
1753052399831,0.06883329898118973,,8.681973457336426
1753052399879,,-2.890399932861328,
1753052399880,-0.3621230125427246,-3.2591071128845215,9.213486671447754
1753052399929,,-3.110666513442993,
1753052399930,-0.4291606545448303,-2.93349552154541,9.452906608581543
1753052399979,,-2.9239187240600586,
1753052399980,-0.3190273642539978,,10.3148193359375
1753052400030,-0.10354922711849213,-2.962226152420044,9.907805442810059
1753052400079,,-2.646191358566284,
1753052400080,0.29388827085494995,-2.5121161937713623,9.831191062927246
1753052400130,0.5764040350914001,-2.4211363792419434,9.807249069213867
1753052400179,-0.3381809890270233,-3.7187938690185547,11.176732063293457
1753052400230,-0.03651157766580582,-2.871246337890625,9.563039779663086
1753052400279,-0.050876785069704056,-2.4211363792419434,9.203909873962402
1753052400329,,-2.3780407905578613,
1753052400330,0.3705027103424072,,8.432976722717285
1753052400379,-0.8553285598754883,-3.5511996746063232,9.989208221435547
1753052400429,0.025737667456269264,-2.6605565547943115,8.466495513916016
1753052400479,0.19812019169330597,-2.8185739517211914,10.152013778686523
1753052400529,,-2.698863983154297,
1753052400530,0.24121582508087158,-2.8808231353759766,9.37629222869873
1753052400579,-0.37169981002807617,-3.048417329788208,9.261370658874512
1753052400629,,-3.18249249458313,
1753052400630,-0.4531026780605316,-3.378817081451416,10.626065254211426
1753052400678,,-2.8329391479492188,
1753052400679,-0.07003039866685867,-2.804208755493164,9.438541412353516
1753052400730,-0.050876785069704056,-2.7706899642944336,9.385869026184082
1753052400780,-0.37648820877075195,-2.6222493648529053,9.146449089050293
1753052400828,,-2.871246337890625,
1753052400829,-0.7164648771286011,-2.210446834564209,8.993220329284668
1753052400879,,-2.100313425064087,
1753052400880,-0.4770447015762329,,8.169614791870117
1753052400929,-0.02214636653661728,-3.24953031539917,10.927735328674316
1753052400930,,,11.291653633117676
1753052400980,-0.08918401598930359,-3.134608507156372,9.998785018920898
1753052401028,,-2.449866771697998,
1753052401029,-1.1522095203399658,-2.4163479804992676,7.915829181671143
1753052401081,0.0736217051744461,-2.698863983154297,9.055469512939453
1753052401129,-0.3429693877696991,-3.005321741104126,10.070611000061035
1753052401179,,-2.5456349849700928,
1753052401180,-0.5871779918670654,-2.492962598800659,8.667608261108398
1753052401229,-0.38127660751342773,-3.0579941272735596,10.266935348510742
1753052401280,-0.5488707423210144,-3.206434726715088,9.337985038757324
1753052401328,,-3.1633388996124268,
1753052401329,-0.8265981078147888,-3.488950490951538,9.314043045043945
1753052401379,,-3.4841620922088623,
1753052401380,-0.8457517623901367,,9.337985038757324
1753052401428,,-3.7666778564453125,
1753052401429,-1.0995371341705322,-3.5847184658050537,9.586981773376465
1753052401479,,-3.3883938789367676,
1753052401480,-0.67815762758255,-3.3261446952819824,9.242217063903809
1753052401528,,-3.225588321685791,
1753052401529,-0.7978677153587341,-3.268683910369873,9.079411506652832
1753052401579,,-3.4841620922088623,
1753052401580,-0.3669114112854004,,9.79288387298584
1753052401629,-0.30945056676864624,-2.957437753677368,9.03631591796875
1753052401680,-0.6590040326118469,-3.1968579292297363,9.088988304138184
1753052401729,-0.8170213103294373,-3.493738889694214,9.634865760803223
1753052401776,-0.6063315868377686,-3.1920695304870605,
1753052401777,-0.8888474106788635,,8.749011993408203
1753052401822,,-3.5655648708343506,
1753052401823,-0.9654618501663208,,9.955689430236816
1753052401872,-0.558447539806366,-2.8808231353759766,
1753052401873,-0.9846154451370239,,8.274959564208984
1753052401923,-0.9319429993629456,-3.397970676422119,9.639654159545898
1753052401972,,-2.876034736633301,
1753052401973,-0.23283611238002777,-3.1250317096710205,8.658031463623047
1753052402023,,-3.3022027015686035,
1753052402024,-1.0468647480010986,,9.060257911682129
1753052402072,,-3.383605480194092,
1753052402073,-0.0077811554074287415,,9.831191062927246
1753052402123,,-3.0340521335601807,
1753052402124,-0.49140989780426025,,8.8878755569458
1753052402172,,-3.4171242713928223,
1753052402173,-0.3669114112854004,,9.730634689331055
1753052402223,-0.4100070297718048,-3.383605480194092,8.624512672424316
1753052402272,,-3.359663486480713,
1753052402273,-0.4387374520301819,,9.405022621154785
1753052402323,-0.9989806413650513,-3.862445831298828,
1753052402324,,,9.586981773376465
1753052402372,,-2.722805976867676,
1753052402373,0.020949264988303185,,8.595782279968262
1753052402422,-0.7499836683273315,-3.3500866889953613,
1753052402423,-0.18495208024978638,,9.840767860412598
1753052402472,,-2.5791537761688232,
1753052402473,0.19812019169330597,-2.8137855529785156,8.255805969238281
1753052402523,-0.5823895931243896,-3.110666513442993,
1753052402524,,,9.783307075500488
1753052402572,,-2.919130325317383,
1753052402573,0.22206220030784607,,8.356362342834473
1753052410903,,-3.3452982902526855,
1753052410904,,-3.848080635070801,
1753052410905,-0.6637924313545227,-3.646967649459839,
1753052410906,-0.19931729137897491,,
1753052410907,0.5093663930892944,,
1753052410908,-0.012569558806717396,,10.056245803833008
1753052410909,,,10.501566886901855
1753052410953,0.45669397711753845,-2.4690206050872803,9.25179386138916
1753052411002,-0.3621230125427246,-2.890399932861328,9.864709854125977
1753052411181,-0.08439560979604721,-2.780266761779785,8.830414772033691
1753052411185,,-2.943072557449341,
1753052411186,0.10714052617549896,-2.737171173095703,9.634865760803223
1753052411236,-0.5776011347770691,-3.0867245197296143,9.572616577148438
1753052411286,,-2.7994203567504883,
1753052411287,0.284311443567276,-2.6126725673675537,9.49121379852295
1753052411337,-0.2663549482822418,-2.65097975730896,8.868721961975098
1753052411386,,-2.588730573654175,
1753052411387,0.2124854028224945,,9.424176216125488
1753052411437,-0.37648820877075195,-2.9526493549346924,9.098565101623535
1753052411438,,,10.032303810119629
1753052411486,,-2.957437753677368,
1753052411487,0.3944447338581085,-3.0148985385894775,9.46727180480957
1753052411537,,-3.287837505340576,
1753052411538,-0.639850378036499,-2.828150749206543,9.55825138092041
1753052411586,,-2.536058187484741,
1753052411587,0.6338648796081543,,8.399457931518555
1753052411638,-0.5632359385490417,-3.2112231254577637,9.95090103149414
1753052411687,-0.03172317147254944,-2.765901565551758,8.217498779296875
1753052411737,,-3.4554316997528076,
1753052411738,-0.8074445128440857,-3.642179250717163,10.58775806427002
1753052411786,,-2.7036523818969727,
1753052411787,-0.38127660751342773,-2.5552117824554443,8.025962829589844
1753052411837,,-2.9909565448760986,
1753052411838,-0.6637924313545227,,9.00279712677002
1753052411886,,-3.9630024433135986,
1753052411887,-0.3860650360584259,,9.869498252868652
1753052411937,,-3.268683910369873,
1753052411938,-1.3389573097229004,,8.40424633026123
1753052411986,,-3.6709096431732178,
1753052411987,-0.3429693877696991,,8.777742385864258
1753052412037,-1.5017629861831665,-3.90554141998291,8.974066734313965
1753052412086,,-3.3452982902526855,
1753052412087,0.04010287672281265,-3.8049850463867188,9.165602684020996
1753052412137,-1.4826093912124634,-3.7858314514160156,9.050681114196777
1753052412186,,-3.6517560482025146,
1753052412187,-0.6637924313545227,,8.974066734313965
1753052412237,,-3.6709096431732178,
1753052412238,-1.128267526626587,,9.175179481506348
1753052412286,,-3.714005470275879,
1753052412287,-1.0085574388504028,,8.916605949401855
1753052412337,-0.4578910768032074,-3.024475336074829,8.413823127746582
1753052412386,,-3.838503837585449,
1753052412387,-1.2862848043441772,,9.088988304138184
1753052412437,,-2.986168146133423,
1753052412438,-0.38127660751342773,-3.7475242614746094,8.5287446975708
1753052412487,-1.4155718088150024,-4.034828186035156,9.247005462646484
1753052412537,-1.2431892156600952,-3.9199066162109375,9.414599418640137
1753052412586,-0.6063315868377686,-3.7906198501586914,
1753052412587,-0.9510966539382935,,9.452906608581543
1753052412638,,-3.78104305267334,
1753052412639,-0.7739257216453552,-3.3883938789367676,9.88386344909668
1753052412688,-0.8984242081642151,-3.287837505340576,9.031527519226074
1753052412737,-0.25677812099456787,-3.508104085922241,9.146449089050293
1753052412787,,-3.646967649459839,
1753052412788,-1.1617863178253174,,9.237428665161133
1753052412836,-0.5536591410636902,-3.7475242614746094,
1753052412837,,,10.362703323364258
1753052412888,-0.5249287486076355,-3.005321741104126,8.078635215759277
1753052412937,-1.0181342363357544,-3.6804866790771484,9.16081428527832
1753052412987,-0.5776011347770691,-3.1968579292297363,8.806472778320312
1753052413036,-1.104325532913208,-3.6373908519744873,
1753052413037,-1.1378443241119385,,8.653243064880371
1753052413087,-1.3150153160095215,-4.1210198402404785,9.19433307647705
1753052413137,-1.8225860595703125,-3.8768110275268555,8.27974796295166
1753052413138,,,9.68274974822998
1753052413187,-1.3102269172668457,-4.259883403778076,9.797672271728516
1753052413236,,-4.063559055328369,
1753052413237,-2.210446834564209,-4.307767391204834,7.9876556396484375
1753052413288,,-4.619013786315918,
1753052413289,-1.8225860595703125,-4.293402194976807,10.204686164855957
1753052413337,,-3.5895068645477295,
1753052413341,,-3.7235822677612305,
1753052413342,-0.4578910768032074,,9.59177017211914
1753052413387,-1.3293805122375488,-3.7283706665039062,8.744223594665527
1753052413437,-0.9463081955909729,-3.795408248901367,9.634865760803223
1753052413487,,-2.2152352333068848,
1753052413488,-0.2902969419956207,,6.9677252769470215
1753052413536,,-4.216787815093994,
1753052413537,-0.7835025191307068,-4.058770656585693,11.353902816772461
1753052413587,,-4.432265758514404,
1753052413588,-1.9183541536331177,,8.40424633026123
1753052413637,-0.7308300733566284,-4.40353536605835,10.559027671813965
1753052422317,,-3.9390604496002197,
1753052422318,,-3.8337154388427734,
1753052422319,-1.027711033821106,-6.357203960418701,
1753052422321,-0.26156654953956604,,9.486425399780273
1753052422322,,,7.202357292175293
1753052422323,,-6.673238754272461,
1753052422324,,-6.783371925354004,
1753052422371,-2.449866771697998,-6.740276336669922,5.98610258102417
1753052422422,-4.810549736022949,-7.875127792358398,4.975749492645264
1753052424267,,-6.931812286376953,
1753052424269,-2.057217836380005,-6.668450355529785,
1753052424270,-2.804208755493164,,6.192004203796387
1753052424317,-2.3349452018737793,-6.610989570617676,6.934206485748291
1753052424366,-2.1960813999176025,-6.563105583190918,6.8336501121521
1753052424417,-2.1960813999176025,-6.3715691566467285,6.891110897064209
1753052424927,-2.4402899742126465,-6.601412773132324,7.025186538696289
1753052424932,-2.722805976867676,-6.716334342956543,6.469731330871582
1753052424983,-2.627037763595581,-6.5295867919921875,6.699574947357178
1753052425033,,-6.567893981933594,
1753052425034,-2.5264813899993896,-6.587047576904297,6.795342922210693
1753052432085,,-6.534375190734863,
1753052432086,-2.497750997543335,-6.419453144073486,6.809708118438721
1753052432087,-0.8457517623901367,-6.357203960418701,8.614935874938965
1753052432088,0.08798690885305405,-2.986168146133423,9.266159057617188
1753052432089,-0.4100070297718048,,9.553462982177734
1753052432136,-0.041299980133771896,-2.6222493648529053,8.85435676574707
1753052432186,,-2.871246337890625,
1753052432187,0.11192893236875534,,9.82640266418457
1753052432367,0.3800795078277588,-2.65097975730896,9.017162322998047
1753052432383,-0.5440823435783386,-3.3931822776794434,10.453682899475098
1753052432434,0.08319851011037827,-2.981379747390747,9.855133056640625
1753052432484,-0.10833762586116791,-2.694075345993042,9.203909873962402
1753052432535,-0.35254621505737305,-2.80899715423584,9.314043045043945
1753052432584,,-2.962226152420044,
1753052432585,-0.08918401598930359,-2.6605565547943115,9.476848602294922
1753052443674,-0.09397241473197937,-2.344521999359131,8.76337718963623
1753052443675,,,7.920617580413818
1753052443678,,-2.7515363693237305,
1753052443679,0.1693897694349289,-5.404311656951904,
1753052443680,0.2795230448246002,,7.413046836853027
1753052443681,,,8.916605949401855
1753052443730,-0.9127894043922424,-2.0859482288360596,9.687539100646973
1753052443781,,-2.0380642414093018,
1753052443782,-0.9271546006202698,-1.9470845460891724,9.701904296875
1753052443830,,-1.9183541536331177,
1753052443831,-0.7978677153587341,-1.813009262084961,9.701904296875
1753052443897,-0.7978677153587341,-1.7076643705368042,9.275735855102539
1753052443901,-0.922366201877594,-1.731606364250183,9.654019355773926
1753052443948,,-1.4826093912124634,
1753052443949,-0.74040687084198,,9.472060203552246
1753052444000,-0.1562216579914093,-1.5735890865325928,
1753052444001,,,9.5007905960083
1753052444048,,-1.468244194984436,
1753052444049,-0.28550854325294495,,9.409811019897461
1753052444100,-0.5057750940322876,-1.8082208633422852,9.553462982177734
1753052444186,,-2.1481974124908447,
1753052444187,-0.5297171473503113,-2.1098902225494385,10.199897766113281
1753052444190,-1.1665748357772827,-2.0620062351226807,9.807249069213867
1753052444239,-0.8313865661621094,-1.9901801347732544,9.970054626464844
1753052444288,-0.10354922711849213,-1.4059948921203613,9.658807754516602
1753052444339,-0.18974047899246216,-1.4012064933776855,10.04188060760498
1753052444387,,-1.6406266689300537,
1753052444388,-0.08918401598930359,,9.740211486816406
1753052444439,-0.5105634927749634,-1.6071078777313232,9.701904296875
1753052444488,-0.3908534348011017,-1.71245276927948,9.381080627441406
1753052444539,0.08798690885305405,-1.8465280532836914,
1753052444540,0.13108254969120026,,9.486425399780273
1753052444588,,-1.7938556671142578,
1753052444589,-0.15143325924873352,,9.050681114196777
1753052444639,-0.3429693877696991,-2.454655408859253,
1753052444640,,,10.16637897491455
1753052453912,,-2.5983073711395264,
1753052453913,-0.5823895931243896,-2.713229179382324,9.797672271728516
1753052453914,-0.8696937561035156,-2.9526493549346924,
1753052453915,-1.3724761009216309,-4.192845821380615,8.341997146606445
1753052453917,-2.253542423248291,-4.379593372344971,8.169614791870117
1753052453969,,-4.006097793579102,
1753052453970,-1.5352818965911865,-4.1880574226379395,8.64366626739502
1753052454019,-1.5400702953338623,-3.848080635070801,8.198345184326172
1753052454070,-1.8177976608276367,-3.9677908420562744,8.87829875946045
1753052454118,,-4.216787815093994,
1753052454119,-1.8944120407104492,,8.801684379577637
1753052454162,-1.6071078777313232,-3.891176223754883,8.380304336547852
1753052454210,,-4.183269023895264,
1753052454211,-2.1577742099761963,,8.447341918945312
1753052454259,,-3.6517560482025146,
1753052454260,-1.367687702178955,-3.8576574325561523,8.27974796295166
1753052454311,-2.167351007461548,-4.4705729484558105,8.91181755065918
1753052454312,,,8.82083797454834
1753052454359,,-4.058770656585693,
1753052454360,-1.875258445739746,-4.034828186035156,8.61972427368164
1753052454410,,-4.173692226409912,
1753052454411,-1.832162857055664,-4.432265758514404,8.51916790008545
1753052454762,-1.3533225059509277,-3.8720226287841797,8.940547943115234
1753052454768,-0.639850378036499,-3.4171242713928223,8.385092735290527
1753052454819,,-4.2550950050354,
1753052454820,-1.8896236419677734,,8.753800392150879
1753052454870,,-4.5854949951171875,
1753052454871,-2.718017578125,-3.9199066162109375,8.576628684997559
1753052454919,,-4.082712650299072,
1753052454920,-1.3389573097229004,,10.00836181640625
1753052455015,-1.899200439453125,-4.1210198402404785,7.844003200531006
1753052455022,-1.3006501197814941,-4.006097793579102,9.079411506652832
1753052455069,,-4.657320976257324,
1753052455070,-2.454655408859253,-4.40353536605835,9.16081428527832
1753052455119,,-3.5847184658050537,
1753052455120,-1.0708067417144775,,7.815272808074951
1753052455170,,-4.834491729736328,
1753052455171,-1.913565754890442,,10.544662475585938
1753052455219,,-4.513668537139893,
1753052455220,-1.7076643705368042,,9.290101051330566
1753052459277,,-4.518456935882568,
1753052459278,,-4.192845821380615,
1753052459279,-2.497750997543335,-3.8145618438720703,
1753052459280,-2.0715830326080322,,
1753052459282,,,8.839991569519043
1753052459283,,,8.169614791870117
1753052459326,-1.4203602075576782,-4.159327030181885,8.97885513305664
1753052459376,-1.0324994325637817,-3.5511996746063232,
1753052459377,-1.0899603366851807,,8.093000411987305
1753052459427,,-4.058770656585693,
1753052459428,-1.3006501197814941,,8.739435195922852
1753052459476,-1.6502034664154053,-4.619013786315918,
1753052459477,,,9.452906608581543
1753052459528,-0.7739257216453552,-3.7618894577026367,9.553462982177734
1753052459577,-1.4873977899551392,-4.063559055328369,8.97885513305664
1753052459628,-1.0229226350784302,-3.6373908519744873,9.270947456359863
1753052459677,-1.348534107208252,-3.867234230041504,9.227851867675781
1753052459678,,,9.630077362060547
1753052459727,,-4.293402194976807,
1753052459728,-1.592742681503296,-3.9007530212402344,8.806472778320312
1753052459777,-1.3198037147521973,-3.8720226287841797,9.117718696594238
1753052459828,-1.3868412971496582,-4.2742486000061035,9.223063468933105
1753052459877,-0.6733692288398743,-3.4841620922088623,8.67718505859375
1753052459929,-1.3820528984069824,-4.049193859100342,8.576628684997559
1753052459978,,-4.144961833953857,
1753052459979,-1.0516531467437744,,9.663596153259277
1753052460028,,-3.776254653930664,
1753052460029,-1.1857284307479858,,8.576628684997559
1753052460076,-1.003769040107727,-3.9438488483428955,9.381080627441406
1753052460077,,,8.361150741577148
1753052460127,-0.8696937561035156,-3.661332845687866,8.87829875946045
1753052460176,,-3.9390604496002197,
1753052460177,-1.2767080068588257,-4.0779242515563965,8.217498779296875
1753052460227,-1.2623428106307983,-4.259883403778076,
1753052460228,,,9.673172950744629
1753052460276,,-4.1641154289245605,
1753052460277,-1.1378443241119385,-4.068347454071045,9.481637001037598
1753052460327,,-3.8815994262695312,
1753052460328,,-3.9246952533721924,
1753052460329,-1.0851719379425049,-4.044404983520508,8.916605949401855
1753052460377,-1.391629695892334,-3.8528690338134766,8.801684379577637
1753052460427,,-3.5464112758636475,
1753052460428,-1.2671312093734741,,8.356362342834473
1753052460476,,-4.22157621383667,
1753052460477,-1.6932991743087769,-4.092289447784424,8.844779968261719
1753052460527,-1.2814964056015015,-4.087501049041748,9.505578994750977
1753052460576,,-4.322132587432861,
1753052460577,-1.4107834100723267,-4.575918197631836,9.03631591796875
1753052460627,,-4.499303340911865,
1753052460628,-1.8225860595703125,-4.111443042755127,8.772953987121582
1753052460676,-1.4107834100723267,-4.173692226409912,8.993220329284668
1753052460727,-1.0947487354278564,-3.958214044570923,
1753052460728,-0.8313865661621094,,9.247005462646484
1753052460776,,-4.370016574859619,
1753052460777,-1.4826093912124634,,9.40023422241211
1753052460827,,-4.336497783660889,
1753052460828,-1.4730325937271118,-3.8049850463867188,9.472060203552246
1753052460877,-1.0468647480010986,-3.7714662551879883,9.256582260131836
1753052460927,,-4.279036998748779,
1753052460928,-1.4826093912124634,,8.959701538085938
1753052460976,,-4.240729808807373,
1753052460977,-1.6980875730514526,,9.419387817382812
1753052461027,,-3.6804866790771484,
1753052461028,-0.6494272351264954,-3.776254653930664,9.337985038757324
1753052461077,-0.8888474106788635,-3.819350242614746,8.792107582092285
1753052461127,,-3.8576574325561523,
1753052461128,-1.3724761009216309,-3.78104305267334,8.710704803466797
1753052461177,-1.1186907291412354,-4.2742486000061035,9.606135368347168
1753052461227,-1.3102269172668457,-3.996521234512329,8.993220329284668
1753052461277,-0.9941922426223755,-3.4410665035247803,8.892663955688477
1753052461278,,,8.09778881072998
1753052461326,,-3.867234230041504,
1753052461327,-1.4107834100723267,,8.916605949401855
1753052461378,-1.3293805122375488,-3.8576574325561523,8.82083797454834
1753052461427,-1.1091139316558838,-4.140173435211182,9.59177017211914
1753052461477,,-4.010886192321777,
1753052461478,-1.6166846752166748,-3.891176223754883,8.792107582092285
1753052461526,,-3.555988073348999,
1753052461527,-1.0947487354278564,,8.892663955688477
1753052461577,-1.1378443241119385,-3.752312660217285,
1753052461578,,,8.500014305114746
1753052461626,,-4.183269023895264,
1753052461627,-1.4873977899551392,-4.355651378631592,8.902240753173828
1753052461677,-1.6214730739593506,-4.3843817710876465,9.634865760803223
1753052461726,,-4.144961833953857,
1753052461727,-1.669357180595398,,8.868721961975098
1753052461778,-1.0324994325637817,-3.8049850463867188,8.902240753173828
1753052461826,,-3.9007530212402344,
1753052461827,-1.0708067417144775,-4.293402194976807,8.67718505859375
1753052461877,,-4.31255578994751,
1753052461878,-1.7651251554489136,,9.28531265258789
1753052461926,,-4.1210198402404785,
1753052461927,-1.1330559253692627,-4.389170169830322,9.266159057617188
1753052461977,,-4.504091739654541,
1753052461978,-1.6454150676727295,,9.084199905395508
1753052462028,,-3.862445831298828,
1753052462029,-0.8649053573608398,,9.031527519226074
1753052462078,-0.8888474106788635,-3.5895068645477295,9.151237487792969
1753052462126,,-3.330933094024658,
1753052462127,-0.7308300733566284,-3.7666778564453125,8.868721961975098
1753052462178,-0.9032126069068909,-4.092289447784424,9.620500564575195
1753052462227,,-4.283825397491455,
1753052462228,-1.875258445739746,-4.279036998748779,8.907029151916504
1753052462277,,-4.13059663772583,
1753052462278,-1.324592113494873,,9.352350234985352
1753052462327,-1.14742112159729,-3.757101058959961,8.701127052307129
1753052462379,-1.0468647480010986,-3.795408248901367,8.691550254821777
1753052462428,-1.324592113494873,-4.068347454071045,
1753052462429,,,9.361927032470703
1753052462478,-1.0995371341705322,-3.7666778564453125,8.265382766723633
1753052462526,,-4.211999416351318,
1753052462527,-1.0708067417144775,-3.8576574325561523,9.481637001037598
1753052462578,-1.14742112159729,-3.78104305267334,8.509591102600098
1753052462627,-1.6837223768234253,-4.034828186035156,
1753052462628,-1.568800687789917,,8.576628684997559
1753052462677,,-4.302978992462158,
1753052462678,-1.7363947629928589,-3.9438488483428955,9.208698272705078
1753052462727,-0.8313865661621094,-3.493738889694214,8.437765121459961
1753052462778,-1.0085574388504028,-3.867234230041504,9.017162322998047
1753052462827,-0.8601169586181641,-3.402759075164795,8.85435676574707
1753052462877,,-3.8289270401000977,
1753052462878,-1.3102269172668457,-4.13059663772583,8.863933563232422
1753052462927,-1.4443022012710571,-4.087501049041748,8.91181755065918
1753052462978,-1.0181342363357544,-3.378817081451416,8.399457931518555
1753052463027,-1.1234791278839111,-3.4985272884368896,8.18876838684082
1753052463077,,-3.757101058959961,
1753052463078,-0.7260416746139526,-3.862445831298828,9.213486671447754
1753052463126,,-3.886387825012207,
1753052463127,-1.2814964056015015,-4.015674591064453,9.041104316711426
1753052463178,-1.6980875730514526,-4.250306606292725,8.76337718963623
1753052463227,-0.558447539806366,-3.7283706665039062,8.691550254821777
1753052463278,-1.6071078777313232,-3.848080635070801,9.247005462646484
1753052463327,-0.778714120388031,-3.4171242713928223,8.126519203186035
1753052463378,,-4.595071792602539,
1753052463379,-1.8417396545410156,-4.834491729736328,9.16081428527832
1753052463428,-3.0627825260162354,-4.743512153625488,7.259818077087402
1753052463478,-2.138620615005493,-4.207211017608643,
1753052463479,,,9.117718696594238
1753052463526,-0.5009866952896118,-3.2112231254577637,8.638877868652344
1753052463578,-0.7356184720993042,-3.508104085922241,8.557475090026855
1753052463627,-1.9853917360305786,-4.13059663772583,7.815272808074951
1753052463678,-2.5456349849700928,-4.623802185058594,
1753052463679,,,8.51916790008545
1753052463726,,-4.13059663772583,
1753052463727,-1.4012064933776855,-4.307767391204834,8.993220329284668
1753052463777,,-4.168903827667236,
1753052463778,-1.2958617210388184,-3.8815994262695312,9.213486671447754
1753052463826,,-3.8337154388427734,
1753052463827,-1.0899603366851807,-3.9246952533721924,8.423399925231934
1753052463877,-1.9662381410598755,-4.202422618865967,
1753052463878,-2.2008697986602783,,8.241440773010254
1753052463927,-1.9614497423171997,-4.4274773597717285,8.31326675415039
1753052463977,,-4.279036998748779,
1753052463978,-1.7747019529342651,-4.2311530113220215,8.883087158203125
1753052464027,,-4.451419353485107,
1753052464028,-2.0428526401519775,,9.156025886535645
1753052464078,-1.1522095203399658,-3.8959646224975586,8.322843551635742
1753052464126,,-4.408323764801025,
1753052464127,-1.7028759717941284,-4.484938144683838,8.614935874938965
1753052464178,-2.095525026321411,-4.360439777374268,9.136872291564941
1753052464226,,-4.432265758514404,
1753052464227,-1.8848352432250977,-4.460996150970459,8.634089469909668
1753052464277,,-4.398746967315674,
1753052464278,-1.7411831617355347,-4.279036998748779,9.428964614868164
1753052464326,,-3.9151182174682617,
1753052464327,,-4.197634220123291,
1753052464328,-1.568800687789917,,
1753052464329,,,8.509591102600098
1753052464378,-1.544858694076538,-4.331709384918213,8.930971145629883
1753052464427,,-4.034828186035156,
1753052464428,-1.8465280532836914,,8.672396659851074
1753052464477,,-4.3412861824035645,
1753052464478,-1.6597803831100464,-4.044404983520508,8.576628684997559
1753052464527,-1.6741455793380737,-4.5423994064331055,8.796895980834961
1753052464578,-2.181716203689575,-4.733935356140137,9.357138633728027
1753052464627,-0.7547720670700073,-3.575141668319702,8.27974796295166
1753052464628,,,8.251017570495605
1753052464678,-1.7459715604782104,-4.489726543426514,8.907029151916504
1753052464727,-1.7842788696289062,-4.168903827667236,8.49522590637207
1753052464777,,-3.9869444370269775,
1753052464778,-1.468244194984436,-4.092289447784424,8.902240753173828
1753052464826,,-4.154538631439209,
1753052464827,-1.9518729448318481,-3.8959646224975586,8.150461196899414
1753052464878,-1.4586673974990845,-3.6900634765625,8.447341918945312
1753052464927,-1.2192472219467163,-3.7427358627319336,8.40424633026123
1753052464978,-2.033275842666626,-4.432265758514404,8.31326675415039
1753052465027,-1.4059948921203613,-3.666121244430542,
1753052465028,-1.4826093912124634,,7.810484409332275
1753052465077,,-4.595071792602539,
1753052465078,-2.210446834564209,-4.839280128479004,9.045892715454102
1753052465126,,-3.733159065246582,
1753052465127,-1.2958617210388184,-3.273472309112549,8.107365608215332
1753052465177,,-3.311779499053955,
1753052465178,-0.9367313981056213,,8.126519203186035
1753052465227,-1.8608932495117188,-4.173692226409912,8.03075122833252
1753052465277,,-4.226364612579346,
1753052465278,-1.6932991743087769,-4.226364612579346,8.974066734313965
1753052465326,,-4.647744178771973,
1753052465327,-2.0667946338653564,-4.57112979888916,9.46727180480957
1753052465377,,-4.053982257843018,
1753052465378,-1.3772644996643066,-3.555988073348999,8.183979988098145
1753052465427,,-3.5511996746063232,
1753052465428,-1.0133458375930786,,8.002020835876465
1753052465477,,-4.2742486000061035,
1753052465478,-1.9422961473464966,-3.9821560382843018,8.768165588378906
1753052465527,-1.5496470928192139,-4.1641154289245605,8.394669532775879
1753052465578,-2.363675594329834,-4.724358558654785,9.050681114196777
1753052465627,-1.3102269172668457,-3.6086604595184326,7.504026889801025
1753052465678,-1.9183541536331177,-4.657320976257324,9.687539100646973
1753052465727,-1.2527660131454468,-3.62302565574646,8.12173080444336
1753052465778,-1.8848352432250977,-4.355651378631592,8.839991569519043
1753052465827,-2.1577742099761963,-4.068347454071045,
1753052465828,,,7.796119213104248
1753052465878,-1.3868412971496582,-4.082712650299072,9.304466247558594
1753052465927,,-3.757101058959961,
1753052465928,-1.391629695892334,,8.567051887512207
1753052465977,,-4.039616584777832,
1753052465978,-1.425148606300354,-3.9438488483428955,8.61972427368164
1753052466027,-1.6789339780807495,-4.2311530113220215,8.346785545349121
1753052466078,-2.033275842666626,-4.374804973602295,9.031527519226074
1753052466127,-2.095525026321411,-4.140173435211182,8.825626373291016
1753052466128,,,8.950124740600586
1753052466178,-1.7411831617355347,-3.819350242614746,8.696338653564453
1753052466227,-1.6310498714447021,-3.273472309112549,7.738658428192139
1753052466277,,-3.733159065246582,
1753052466278,-1.9662381410598755,,8.969278335571289
1753052466327,-2.11946702003479,-3.848080635070801,7.968502044677734
1753052466377,,-4.2311530113220215,
1753052466378,-2.540846586227417,-4.168903827667236,9.079411506652832
1753052466427,-1.104325532913208,-3.838503837585449,8.533533096313477
1753052466477,,-3.6709096431732178,
1753052466478,,-3.7906198501586914,
1753052466479,-1.813009262084961,-3.958214044570923,8.183979988098145
1753052466527,-1.9949685335159302,-3.867234230041504,
1753052466528,-1.8848352432250977,,8.107365608215332
1753052466578,-2.382829189300537,-4.250306606292725,8.045116424560547
1753052466627,,-4.020462989807129,
1753052466628,-1.7938556671142578,,8.749011993408203
1753052466677,,-3.8145618438720703,
1753052466678,-1.3533225059509277,-3.8097734451293945,8.58620548248291
1753052466727,-1.6597803831100464,-4.0300397872924805,
1753052466728,-2.0045454502105713,,8.78731918334961
1753052466777,,-4.0300397872924805,
1753052466778,-1.932719349861145,-4.073135852813721,8.686761856079102
1753052466827,-1.789067268371582,-3.8337154388427734,8.15524959564209
1753052466878,-2.497750997543335,-4.432265758514404,8.610147476196289
1753052466927,-1.5400702953338623,-3.8815994262695312,8.605359077453613
1753052466977,,-3.7858314514160156,
1753052466978,-1.5161281824111938,-3.8049850463867188,8.46170711517334
1753052467027,-1.9614497423171997,-4.140173435211182,7.8056960105896
1753052467077,,-4.34607458114624,
1753052467078,-2.3253684043884277,-4.422688961029053,8.667608261108398
1753052467127,-2.1577742099761963,-4.456207752227783,8.964489936828613
1753052467178,-1.899200439453125,-4.269460201263428,8.385092735290527
1753052467228,-1.635838270187378,-4.068347454071045,8.959701538085938
1753052467279,,-4.245518207550049,
1753052467281,-2.344521999359131,-4.355651378631592,7.618948459625244
1753052467328,-2.315791606903076,-4.590283393859863,8.322843551635742
1753052467379,-2.358887195587158,-4.413112163543701,8.883087158203125
1753052467428,-2.9047651290893555,-4.6956281661987305,8.016386032104492
1753052467478,,-4.3843817710876465,
1753052467479,-2.0380642414093018,,8.61972427368164
1753052467527,,-5.011662483215332,
1753052467528,-2.627037763595581,-4.906317710876465,9.266159057617188
1753052467579,-2.301426410675049,-4.508880138397217,7.116166114807129
1753052467628,-2.11946702003479,-4.705204963684082,9.050681114196777
1753052467679,-2.7036523818969727,-4.796184539794922,7.891887187957764
1753052467727,,-4.0300397872924805,
1753052467728,-1.104325532913208,-4.3173441886901855,8.447341918945312
1753052467777,,-4.87758731842041,
1753052467778,-2.9718029499053955,-5.112219333648682,8.002020835876465
1753052467827,-2.3780407905578613,-4.484938144683838,8.758588790893555
1753052467877,,-3.9630024433135986,
1753052467878,-1.1665748357772827,,8.998008728027344
1753052467926,,-3.599083662033081,
1753052467927,-2.186504602432251,-3.7906198501586914,7.4800848960876465
1753052467977,,-4.178480625152588,
1753052467978,-1.5975310802459717,-4.638167381286621,9.634865760803223
1753052468027,-2.27748441696167,-3.8337154388427734,7.666832447052002
1753052468078,,-4.441842555999756,
1753052468080,,-4.805761337280273,
1753052468081,-2.234388828277588,,
1753052468082,-2.406771183013916,,8.174403190612793
1753052468127,,-3.9821560382843018,
1753052468128,-1.3198037147521973,,8.42818832397461
1753052468178,,-3.7475242614746094,
1753052468179,-1.913565754890442,,8.049904823303223
1753052468227,,-4.575918197631836,
1753052468228,-2.1960813999176025,-4.566341400146484,7.858368396759033
1753052468278,,-4.724358558654785,
1753052468279,-2.8425159454345703,-4.140173435211182,9.639654159545898
1753052468328,-1.1905168294906616,-2.9957449436187744,6.555922985076904
1753052468378,,-4.705204963684082,
1753052468379,-2.2248120307922363,,9.778518676757812
1753052468428,,-4.2742486000061035,
1753052468429,-1.9853917360305786,,8.8878755569458
1753052468478,,-4.834491729736328,
1753052468479,-2.162562608718872,-4.489726543426514,9.017162322998047
1753052468528,-2.258330821990967,-4.1880574226379395,8.816049575805664
1753052468579,-1.7363947629928589,-4.293402194976807,8.590993881225586
1753052468580,,,9.141660690307617
1753052468628,,-4.40353536605835,
1753052468629,-2.2918496131896973,,9.132083892822266
1753052468801,,-3.8528690338134766,
1753052468802,-1.1713632345199585,-4.5854949951171875,8.902240753173828
1753052468854,,-4.480149745941162,
1753052468855,-2.3924059867858887,,8.667608261108398
1753052468904,-1.4012064933776855,-3.953425645828247,9.419387817382812
1753052468955,-1.6789339780807495,-4.2550950050354,7.944559574127197
1753052469004,-1.8704700469970703,-4.211999416351318,9.031527519226074
1753052473700,,-4.40353536605835,
1753052473701,,-4.518456935882568,
1753052473703,,-5.021239280700684,
1753052473705,-1.6166846752166748,,
1753052473706,-1.4059948921203613,,
1753052473707,-3.1441853046417236,,8.859145164489746
1753052473750,,-2.4163479804992676,
1753052473751,-1.1330559253692627,-2.009333848953247,8.193556785583496
1753052473801,0.14065934717655182,-1.5783774852752686,8.341997146606445
1753052473851,0.9403226971626282,-3.024475336074829,12.321160316467285
1753052473900,-1.5544354915618896,-3.201646327972412,8.667608261108398
1753052473966,-0.5249287486076355,-3.2638955116271973,8.251017570495605
1753052473970,-1.8656816482543945,-3.230376720428467,5.516839504241943
1753052474017,-2.3732523918151855,-3.1633388996124268,
1753052474018,-1.9710265398025513,,5.559935092926025
1753052474068,-1.7651251554489136,-2.9670145511627197,4.5160627365112305
1753052474117,-1.8082208633422852,-4.523245334625244,6.608595371246338
1753052474168,-2.943072557449341,-3.7714662551879883,3.7211880683898926
1753052474255,,-6.376357555389404,
1753052474256,-3.97257924079895,-7.008427143096924,8.361150741577148
1753052474297,,-4.863222122192383,
1753052474298,-3.996521234512329,-3.4554316997528076,7.470507621765137
1753052474349,-0.5297171473503113,-3.421912670135498,9.1847562789917
1753052474398,,-3.1250317096710205,
1753052474399,-0.5871779918670654,,11.052233695983887
1753052474449,0.9738415479660034,-4.508880138397217,14.519037246704102
1753052474499,-1.4059948921203613,-5.222352504730225,12.551003456115723
1753052474548,,-5.615001678466797,
1753052474549,-1.4107834100723267,-5.533598899841309,12.139201164245605
1753052474597,,-4.13059663772583,
1753052474598,-2.2870612144470215,-3.737947463989258,8.09778881072998
1753052474648,,-3.5033156871795654,
1753052474649,-1.755548357963562,-3.618237257003784,7.154473304748535
1753052474698,-1.6980875730514526,-3.0340521335601807,6.287772178649902
1753052474961,,-3.5176808834075928,
1753052474962,-1.4586673974990845,-3.8097734451293945,7.269394874572754
1753052474970,-1.789067268371582,-3.800196647644043,7.197568893432617
1753052475017,-1.449090600013733,-4.551976203918457,9.97484302520752
1753052475067,-1.7507599592208862,-4.216787815093994,
1753052475068,-2.205658197402954,,8.514379501342773
1753052475116,-1.6310498714447021,-4.336497783660889,
1753052475117,-1.0516531467437744,,9.414599418640137
1753052475167,,-4.288613796234131,
1753052475168,-2.1098902225494385,,8.241440773010254
1753052475441,-1.6932991743087769,-3.9486372470855713,8.045116424560547
1753052475444,-2.722805976867676,-4.2742486000061035,8.49522590637207
1753052475493,-1.3868412971496582,-4.652532577514648,9.91738224029541
1753052475543,,-4.202422618865967,
1753052475544,-1.6071078777313232,-4.202422618865967,9.223063468933105
1753052475593,-2.0236990451812744,-4.001309394836426,7.877521991729736
1753052475643,,-4.551976203918457,
1753052475644,-2.3301568031311035,,9.21827507019043
1753052475694,,-4.2550950050354,
1753052475695,-1.9231425523757935,,8.207921981811523
1753052475744,-1.5400702953338623,-3.8768110275268555,8.772953987121582
1753052475792,-2.02848744392395,-3.9199066162109375,
1753052475793,-2.186504602432251,,8.011597633361816
1753052475843,-1.2958617210388184,-4.250306606292725,
1753052475844,-1.3006501197814941,,9.323619842529297
1753052475892,-1.899200439453125,-4.211999416351318,9.12729549407959
1753052475943,,-4.480149745941162,
1753052475944,-2.5312697887420654,,8.131307601928711
1753052484881,-1.18094003200531,-4.039616584777832,8.691550254821777
1753052484898,-2.2200236320495605,-4.245518207550049,
1753052484899,-1.813009262084961,,8.85435676574707
1753052484900,,-4.125808238983154,8.830414772033691
1753052484901,,-4.6956281661987305,
1753052484903,-2.698863983154297,-3.929483652114868,8.749011993408203
1753052484955,-2.2152352333068848,-4.034828186035156,
1753052484956,-2.4450783729553223,,8.91181755065918
1753052485004,-1.5592238903045654,-3.97257924079895,9.476848602294922
1753052485055,-2.588730573654175,-4.13059663772583,8.926182746887207
1753052485104,-2.3493103981018066,-3.9677908420562744,8.150461196899414
1753052485151,-2.3924059867858887,-4.547187805175781,10.271723747253418
1753052485198,-2.1051018238067627,-3.8576574325561523,8.09778881072998
1753052485248,,-3.996521234512329,
1753052485249,-2.631826162338257,-3.7906198501586914,8.203133583068848
1753052485300,-1.9662381410598755,-3.838503837585449,9.203909873962402
1753052485349,,-4.1210198402404785,
1753052485350,-2.497750997543335,,8.145672798156738
1753052485400,,-4.465784549713135,
1753052485401,-2.0667946338653564,,9.788095474243164
1753052485449,-2.301426410675049,-3.9199066162109375,
1753052485450,-2.0667946338653564,,9.170391082763672
1753052485730,,-3.8337154388427734,
1753052485732,,-3.4362781047821045,
1753052485733,-1.6741455793380737,,8.413823127746582
1753052485735,-1.8704700469970703,-3.8720226287841797,8.959701538085938
1753052485783,-2.5312697887420654,-4.326920986175537,8.557475090026855
1753052485833,,-4.034828186035156,
1753052485834,-2.339733600616455,,7.762600421905518
1753052485882,,-3.824138641357422,
1753052485883,-1.7747019529342651,,9.165602684020996
1753052486033,-1.8225860595703125,-3.488950490951538,7.83921480178833
1753052486082,,-4.154538631439209,
1753052486083,-2.7563247680664062,-4.116231441497803,8.33720874786377
1753052486134,-1.4538789987564087,-3.886387825012207,9.510367393493652
1753052486183,-2.3684639930725098,-3.8576574325561523,8.883087158203125
1753052486233,,-3.97257924079895,
1753052486234,-1.7220295667648315,-4.140173435211182,8.806472778320312
1753052486282,,-4.058770656585693,
1753052486283,-2.2631192207336426,-3.910329818725586,8.590993881225586
1753052486333,,-4.0970778465271,
1753052486334,-2.1098902225494385,-3.996521234512329,8.87829875946045
1753052486383,-1.8704700469970703,-3.8768110275268555,8.476072311401367
1753052486434,-2.27748441696167,-3.867234230041504,7.791330814361572
1753052486483,-2.1529858112335205,-4.116231441497803,8.940547943115234
1753052486530,-1.7220295667648315,-3.910329818725586,9.074623107910156
1753052486581,,-3.7283706665039062,
1753052486582,-2.1098902225494385,-3.9246952533721924,8.456918716430664
1753052486630,,-3.9007530212402344,
1753052486631,-2.5264813899993896,-3.9438488483428955,8.744223594665527
1753052486681,,-4.092289447784424,
1753052486682,-2.8568811416625977,-3.78104305267334,8.365939140319824
1753052486730,-1.204882025718689,-3.359663486480713,9.117718696594238
1753052486781,,-3.005321741104126,
1753052486782,-1.7986440658569336,,7.0587053298950195
1753052486830,-2.358887195587158,-3.5272576808929443,7.551910877227783
1753052486881,-2.1721394062042236,-4.389170169830322,
1753052486882,-1.9853917360305786,,8.796895980834961
1753052493988,,-5.629366874694824,
1753052493989,-2.6366145610809326,-4.049193859100342,10.582969665527344
1753052493990,,,9.673172950744629
1753052494037,-1.6645687818527222,-3.9677908420562744,8.351573944091797
1753052494088,,-4.729146957397461,
1753052494089,-1.7651251554489136,-4.8919525146484375,9.021950721740723
1753052494176,-1.468244194984436,-4.9350481033325195,9.270947456359863
1753052494180,-2.713229179382324,-4.456207752227783,7.74823522567749
1753052494229,-1.4873977899551392,-4.824914932250977,
1753052494230,-1.128267526626587,,10.458471298217773
1753052494278,-2.0859482288360596,-4.595071792602539,8.916605949401855
1753052494329,,-5.145738124847412,
1753052494330,-1.6741455793380737,,10.266935348510742
1753052494378,,-4.7387237548828125,
1753052494379,-2.234388828277588,,9.744999885559082
1753052494429,-0.6685808300971985,-4.475361347198486,9.768941879272461
1753052494430,,,10.233416557312012
1753052494478,,-4.906317710876465,
1753052494479,-2.320580005645752,,8.849568367004395
1753052494529,,-4.389170169830322,
1753052494530,-1.7986440658569336,,9.448118209838867
1753052494603,,-4.748300552368164,
1753052494604,-2.3780407905578613,-4.441842555999756,8.662819862365723
1753052494650,,-4.499303340911865,
1753052494651,-1.6262614727020264,,8.298901557922363
1753052494701,,-4.025251388549805,
1753052494702,-0.7547720670700073,-4.106654644012451,9.630077362060547
1753052494752,-1.1617863178253174,-4.087501049041748,8.792107582092285
1753052494800,,-4.489726543426514,
1753052494801,-1.3628993034362793,-4.408323764801025,9.783307075500488
1753052494852,-1.4395138025283813,-4.183269023895264,9.730634689331055
1753052494901,-0.9989806413650513,-4.599860191345215,10.22383975982666
1753052494952,,-4.6956281661987305,
1753052494953,-2.0859482288360596,,9.031527519226074
1753052495001,-0.8361749649047852,-4.106654644012451,
1753052495002,-1.0660183429718018,,9.419387817382812
1753052495052,,-3.733159065246582,
1753052495053,-1.1234791278839111,-4.073135852813721,8.480860710144043
1753052495100,,-4.092289447784424,
1753052495101,-1.3198037147521973,-4.068347454071045,8.796895980834961
1753052495183,,-3.8337154388427734,
1753052495184,-1.468244194984436,-3.7906198501586914,9.203909873962402
1753052495189,-0.7547720670700073,-3.6900634765625,8.796895980834961
1753052495235,,-3.9630024433135986,
1753052495236,-1.6166846752166748,,9.519944190979004
1753052495287,-1.1905168294906616,-3.838503837585449,8.447341918945312
1753052495336,-0.7835025191307068,-3.6134488582611084,8.811261177062988
1753052495337,,,8.672396659851074
1753052495387,-1.5735890865325928,-3.848080635070801,8.638877868652344
1753052495436,-0.8313865661621094,-3.757101058959961,
1753052495437,,,9.419387817382812
1753052495487,-0.7930793166160583,-3.311779499053955,8.753800392150879
1753052495536,-1.4395138025283813,-4.006097793579102,9.816825866699219
1753052495537,,,9.706692695617676
1753052495587,-1.3820528984069824,-4.006097793579102,9.16081428527832
1753052495636,-0.9702502489089966,-3.536834478378296,9.136872291564941
1753052495637,,,8.839991569519043
1753052495687,-1.4203602075576782,-3.4793736934661865,8.926182746887207
1753052495736,,-3.5464112758636475,
1753052495737,-1.0947487354278564,,9.156025886535645
1753052495786,,-3.3452982902526855,
1753052495787,-0.9750386476516724,-3.1010897159576416,9.419387817382812
1753052495835,,-3.1633388996124268,
1753052495836,-0.9415197968482971,-3.3500866889953613,9.12729549407959
1753052495887,-0.8505401611328125,-3.450643301010132,9.419387817382812
1753052495936,-1.0133458375930786,-3.0436289310455322,
1753052495937,-0.9989806413650513,,8.638877868652344
1753052495987,-1.247977614402771,-3.0340521335601807,8.653243064880371
1753052495988,,,9.40023422241211
1753052496036,,-3.3931822776794434,
1753052496037,-0.6206967830657959,,9.807249069213867
1753052496087,-0.922366201877594,-3.1250317096710205,8.332420349121094
1753052496136,,-3.1202433109283447,
1753052496137,-0.6925228238105774,,9.318831443786621
1753052496187,-1.1186907291412354,-3.5272576808929443,9.601346969604492
1753052496236,,-2.9718029499053955,
1753052496237,-0.5919663906097412,,8.500014305114746
1753052496287,,-2.962226152420044,
1753052496288,-1.3533225059509277,,8.67718505859375
1753052496336,-0.9463081955909729,-3.508104085922241,
1753052496337,-1.003769040107727,,9.333196640014648
1753052496387,-1.0372878313064575,-3.1010897159576416,
1753052496388,-1.061229944229126,,8.480860710144043
1753052496436,,-3.1681272983551025,
1753052496437,-0.8696937561035156,,9.146449089050293
1753052496487,-1.027711033821106,-3.4985272884368896,9.390657424926758
1753052496536,-1.2384008169174194,-3.3883938789367676,
1753052496537,,,9.16081428527832
1753052496587,-0.8696937561035156,-2.981379747390747,8.720281600952148
1753052496636,,-3.599083662033081,
1753052496637,-1.2527660131454468,,9.639654159545898
1753052496687,-0.7499836683273315,-3.4171242713928223,9.041104316711426
1753052496736,-1.5400702953338623,-3.4841620922088623,
1753052496737,-1.492186188697815,,8.988431930541992
1753052496787,,-3.6326024532318115,
1753052496788,-1.2096704244613647,,8.7298583984375
1753052496836,,-3.6804866790771484,
1753052496837,-1.2767080068588257,-3.6756980419158936,9.026739120483398
1753052496887,-1.7747019529342651,-3.9486372470855713,
1753052496888,,,8.629301071166992
1753052496936,-1.8896236419677734,-4.614225387573242,
1753052496937,,,8.830414772033691
1753052496987,,-4.9350481033325195,
1753052496988,-4.1210198402404785,,7.863156795501709
1753052497036,,-4.22157621383667,
1753052497037,-0.35733461380004883,,11.258134841918945
1753052497087,-1.6406266689300537,-3.714005470275879,9.634865760803223
1753052497136,,-4.3843817710876465,
1753052497137,-1.1234791278839111,,9.294889450073242
1753052497187,,-3.560776472091675,
1753052497188,-2.11946702003479,-3.714005470275879,7.604583263397217
1753052497236,,-4.034828186035156,
1753052497237,-1.8034324645996094,,9.40023422241211
1753052497287,-1.2096704244613647,-3.9007530212402344,9.290101051330566
1753052497336,-1.8800468444824219,-3.8720226287841797,8.533533096313477
1753052497387,,-4.2742486000061035,
1753052497388,-2.234388828277588,-4.2742486000061035,8.078635215759277
1753052497436,-1.6837223768234253,-4.144961833953857,9.237428665161133
1753052497487,-1.0372878313064575,-3.5416228771209717,8.624512672424316
1753052497535,,-4.154538631439209,
1753052497536,-2.344521999359131,-4.350862979888916,8.658031463623047
1753052497587,-1.7699135541915894,-4.5423994064331055,9.333196640014648
1753052497635,,-3.867234230041504,
1753052497636,-1.3628993034362793,-3.757101058959961,9.03631591796875
1753052497686,-1.71245276927948,-3.891176223754883,8.15524959564209
1753052497735,-1.7842788696289062,-4.3173441886901855,9.371503829956055
1753052497787,-1.247977614402771,-3.795408248901367,8.710704803466797
1753052497835,-1.9710265398025513,-3.6996402740478516,8.437765121459961
1753052497886,-1.7028759717941284,-3.8768110275268555,9.031527519226074
1753052497935,-1.080383539199829,-3.512892484664917,
1753052497936,,,8.954913139343262
1753052497986,,-3.1968579292297363,
1753052497987,-0.9798270463943481,-3.5655648708343506,8.318055152893066
1753052498035,,-4.073135852813721,
1753052498036,-2.076371431350708,-4.111443042755127,9.09377670288086
1753052498086,-1.0755951404571533,-3.737947463989258,9.232640266418457
1753052498135,-1.3006501197814941,-3.2399535179138184,8.394669532775879
1753052498186,-1.5304933786392212,-3.7858314514160156,9.1847562789917
1753052498235,-1.6789339780807495,-3.9390604496002197,9.103353500366211
1753052498286,-0.9750386476516724,-3.5176808834075928,8.672396659851074
1753052498335,,-3.795408248901367,
1753052498336,-1.7986440658569336,,8.658031463623047
1753052498386,-0.6637924313545227,-3.62302565574646,9.261370658874512
1753052498436,-0.702099621295929,-3.445854902267456,8.715493202209473
1753052498486,,-3.7858314514160156,
1753052498487,-1.1665748357772827,,8.567051887512207
1753052498535,-2.138620615005493,-3.8959646224975586,
1753052498536,-1.5496470928192139,,8.543109893798828
1753052498586,,-3.8337154388427734,
1753052498587,-1.1953052282333374,,9.43375301361084
1753052498635,,-3.1441853046417236,
1753052498636,-0.7595604658126831,-3.3022027015686035,8.571840286254883
1753052498686,,-3.603872060775757,
1753052498687,-0.821809709072113,,9.371503829956055
1753052498735,,-4.135385036468506,
1753052498736,-1.5783774852752686,,9.165602684020996
1753052498786,,-4.073135852813721,
1753052498787,-0.7595604658126831,,9.783307075500488
1753052498835,,-3.9821560382843018,
1753052498836,-1.1091139316558838,,9.8599214553833
1753052498886,,-3.7475242614746094,
1753052498887,-0.7260416746139526,,9.586981773376465
1753052498969,,-3.4745852947235107,
1753052498970,-0.5153518915176392,-3.3883938789367676,9.539097785949707
1753052498973,-0.1801636815071106,-3.4554316997528076,9.644442558288574
1753052498974,,,9.539097785949707
1753052499022,,-3.7714662551879883,
1753052499023,-0.6542156338691711,-3.848080635070801,10.070611000061035
1753052499071,,-3.268683910369873,
1753052499072,-0.8313865661621094,-3.3452982902526855,8.571840286254883
1753052499122,-0.7116764783859253,-3.6804866790771484,9.543886184692383
1753052499171,-0.5392939448356628,-3.115454912185669,9.06983470916748
1753052499222,-0.5823895931243896,-3.3740286827087402,9.247005462646484
1753052499271,-0.32381579279899597,-3.6326024532318115,
1753052499272,,,9.419387817382812
1753052499322,-0.8457517623901367,-3.5655648708343506,9.462483406066895
1753052499323,,,9.644442558288574
1753052499371,-0.32860419154167175,-3.287837505340576,
1753052499372,,,8.830414772033691
1753052499422,-0.24241292476654053,-3.134608507156372,9.30925464630127
1753052499471,-1.0516531467437744,-3.7858314514160156,9.247005462646484
1753052499522,,-3.5464112758636475,
1753052499523,-0.24241292476654053,,10.051457405090332
1753052499571,-0.6206967830657959,-3.292625904083252,8.734646797180176
1753052499622,-0.5249287486076355,-3.795408248901367,10.075399398803711
1753052499671,-0.67815762758255,-3.378817081451416,
1753052499672,,,8.705916404724121
1753052499722,-0.5153518915176392,-3.5895068645477295,9.654019355773926
1753052499771,,-3.488950490951538,
1753052499772,-1.0755951404571533,,8.839991569519043
1753052499822,,-3.90554141998291,
1753052499823,-0.8122329115867615,,9.82640266418457
1753052499871,-0.37169981002807617,-3.426701068878174,8.85435676574707
1753052499872,,,8.816049575805664
1753052499922,-0.9941922426223755,-3.359663486480713,8.902240753173828
1753052499923,,,8.76337718963623
1753052499971,-1.2192472219467163,-3.6804866790771484,8.839991569519043
1753052500022,,-4.259883403778076,
1753052500023,-1.669357180595398,,9.357138633728027
1753052500071,-1.611896276473999,-3.8815994262695312,
1753052500072,,,8.303689956665039
1753052500122,-1.4826093912124634,-3.795408248901367,
1753052500123,-0.8888474106788635,,9.486425399780273
1753052500171,-1.9662381410598755,-4.551976203918457,9.060257911682129
1753052500222,-3.2638955116271973,-4.8488569259643555,8.490437507629395
1753052500271,,-4.413112163543701,
1753052500272,-0.7499836683273315,,10.760141372680664
1753052500322,-0.6733692288398743,-3.8768110275268555,10.118494987487793
1753052500371,-1.913565754890442,-3.8959646224975586,8.332420349121094
1753052500422,-1.367687702178955,-4.058770656585693,8.85435676574707
1753052500471,-3.0867245197296143,-4.868010520935059,9.09377670288086
1753052500522,-1.0564415454864502,-4.197634220123291,9.572616577148438
1753052500571,-1.3868412971496582,-3.4602200984954834,9.021950721740723
1753052500622,0.3274070918560028,-3.6278140544891357,8.7298583984375
1753052500623,,,8.112154006958008
1753052500671,-1.8608932495117188,-4.269460201263428,8.839991569519043
1753052500722,-1.9375077486038208,-4.820126533508301,7.992444038391113
1753052500771,-1.6789339780807495,-4.025251388549805,
1753052500772,,,7.556699275970459
1753052500822,,-4.518456935882568,
1753052500823,-2.3540987968444824,,9.59177017211914
1753052500871,-1.4826093912124634,-4.049193859100342,9.59177017211914
1753052500922,-0.8265981078147888,-3.5847184658050537,9.112930297851562
1753052500971,,-4.580706596374512,
1753052500972,-1.5975310802459717,,9.601346969604492
1753052501022,-1.3772644996643066,-3.733159065246582,9.223063468933105
1753052501023,,,8.681973457336426
1753052501071,-1.7747019529342651,-3.5033156871795654,8.088212013244629
1753052501122,-1.8034324645996094,-3.977367639541626,7.901463985443115
1753052501171,-1.6837223768234253,-3.7906198501586914,7.83921480178833
1753052501222,-1.2288240194320679,-3.4314894676208496,7.911040782928467
1753052501271,-2.5935189723968506,-4.307767391204834,
1753052501272,-1.4969745874404907,,9.012373924255371
1753052501322,-0.15143325924873352,-3.402759075164795,
1753052501323,,,7.934982776641846
1753052501371,-1.9183541536331177,-4.293402194976807,10.204686164855957
1753052501422,-1.5735890865325928,-5.222352504730225,9.5007905960083
1753052501471,,-3.402759075164795,
1753052501472,-1.1857284307479858,,10.329184532165527
1753052501522,-0.0077811554074287415,-3.8337154388427734,
1753052501523,,,10.247781753540039
1753052501571,-3.4602200984954834,-4.140173435211182,
1753052501572,,,10.697892189025879
1753052501623,0.2890998423099518,-3.9677908420562744,9.668384552001953
1753052501672,-1.0324994325637817,-2.981379747390747,9.912593841552734
1753052501722,,-2.9909565448760986,
1753052501723,1.0696096420288086,,7.5662760734558105
1753052501771,-4.216787815093994,-4.57112979888916,
1753052501772,-1.4538789987564087,,9.79288387298584
1753052501822,-0.702099621295929,-4.868010520935059,7.259818077087402
1753052501823,,,5.976525783538818
1753052501871,-1.511339783668518,-1.731606364250183,8.610147476196289
1753052501872,,,12.129624366760254
1753052501922,,-5.279813289642334,
1753052501923,0.9020155072212219,,12.163143157958984
1753052501971,,-3.7283706665039062,
1753052501972,-3.0101101398468018,,9.457695007324219
1753052502022,-0.050876785069704056,-3.1633388996124268,7.642890453338623
1753052502071,-2.014122247695923,-4.5423994064331055,11.373056411743164
1753052502122,,-4.001309394836426,
1753052502123,-1.8034324645996094,,6.74267053604126
1753052502171,-2.9095535278320312,-3.958214044570923,8.907029151916504
1753052502233,0.11192893236875534,-4.465784549713135,10.367491722106934
1753052502237,-3.421912670135498,-3.776254653930664,7.116166114807129
1753052502285,-1.2527660131454468,-3.201646327972412,9.12729549407959
1753052502335,,-3.996521234512329,
1753052502336,-0.9798270463943481,,9.989208221435547
1753052502385,-1.247977614402771,-3.5224692821502686,9.448118209838867
1753052502435,-1.9518729448318481,-3.603872060775757,9.132083892822266
1753052502484,,-3.493738889694214,
1753052502485,-2.2248120307922363,-3.8768110275268555,6.627748966217041
1753052502535,,-3.7235822677612305,
1753052502536,-3.3740286827087402,,7.772177219390869
1753052502584,,-4.149750232696533,
1753052502585,-1.9470845460891724,,8.811261177062988
1753052502635,,-2.828150749206543,
1753052502636,-1.5257049798965454,-3.709217071533203,7.187992095947266
1753052502684,,-3.6086604595184326,
1753052502685,-0.9463081955909729,,9.055469512939453
1753052502735,,-3.958214044570923,
1753052502736,-2.1481974124908447,,7.705139636993408
1753052502784,,-3.2351651191711426,
1753052502785,-1.367687702178955,-4.389170169830322,6.929418087005615
1753052502835,,-4.202422618865967,
1753052502836,-1.8034324645996094,,10.4728364944458
1753052502884,,-4.451419353485107,
1753052502885,-2.516904592514038,,8.964489936828613
1753052502935,-1.5879542827606201,-3.508104085922241,
1753052502936,,,8.203133583068848
1753052502984,,-3.843292236328125,
1753052502985,-2.3780407905578613,-2.9239187240600586,7.8296380043029785
1753052503035,,-2.80899715423584,
1753052503036,-1.6310498714447021,,7.255029678344727
1753052503084,,-4.666897773742676,
1753052503085,-3.1489737033843994,,8.667608261108398
1753052503135,-1.3724761009216309,-3.757101058959961,8.341997146606445
1753052503136,,,8.413823127746582
1753052503184,-1.2431892156600952,-3.0579941272735596,8.715493202209473
1753052503235,,-3.862445831298828,
1753052503236,-1.18094003200531,,9.108141899108887
1753052503284,,-3.177704095840454,
1753052503285,-2.3780407905578613,-3.4362781047821045,6.876745700836182
1753052503335,,-3.7618894577026367,
1753052503336,-0.4578910768032074,,8.825626373291016
1753052503384,,-3.3069911003112793,
1753052503385,-2.3780407905578613,,8.389881134033203
1753052503435,-1.14742112159729,-4.1210198402404785,6.876745700836182
1753052503436,,,6.402693748474121
1753052503484,,-3.958214044570923,
1753052503485,-4.010886192321777,-3.09151291847229,7.149684906005859
1753052503535,-0.5919663906097412,-3.9486372470855713,
1753052503536,-1.71245276927948,,8.24622917175293
1753052503584,,-2.2679076194763184,
1753052503585,-1.7699135541915894,-2.9095535278320312,6.56071138381958
1753052503635,,-4.580706596374512,
1753052503636,-0.49140989780426025,,10.678738594055176
1753052503684,,-3.642179250717163,
1753052503685,-2.7275943756103516,-3.488950490951538,8.58620548248291
1753052503735,,-4.293402194976807,
1753052503736,-0.4818331003189087,,8.835203170776367
1753052503784,,-3.7714662551879883,
1753052503785,-2.962226152420044,-3.5942952632904053,7.9637131690979
1753052503835,,-4.374804973602295,
1753052503836,-1.4203602075576782,,7.934982776641846
1753052503884,,-4.197634220123291,
1753052503885,-2.4642322063446045,,7.733870029449463
1753052503935,,-3.354875087738037,
1753052503936,-0.414795458316803,,8.715493202209473
1753052503985,-4.413112163543701,-4.906317710876465,7.618948459625244
1753052504035,-3.426701068878174,-5.883152008056641,11.13842487335205
1753052504036,,,9.816825866699219
1753052504084,,-4.307767391204834,
1753052504085,-3.9630024433135986,,7.427412033081055
1753052504135,0.025737667456269264,-0.9798270463943481,8.509591102600098
1753052504184,,-4.556764602661133,
1753052504185,-1.913565754890442,-4.226364612579346,8.107365608215332
1753052504235,,-4.911106109619141,
1753052504236,-4.235941410064697,,10.25735855102539
1753052504284,,-3.9007530212402344,
1753052504285,-0.42437225580215454,,6.689998149871826
1753052504335,-3.5272576808929443,-3.4075474739074707,6.168062210083008
1753052504336,,,6.953360080718994
1753052504384,,-5.835268020629883,
1753052504385,-2.866457939147949,,8.725069999694824
1753052504435,-4.820126533508301,-4.973355293273926,
1753052504436,-4.417900562286377,,6.225522994995117
1753052504484,,-3.7283706665039062,
1753052504485,-1.1617863178253174,-4.144961833953857,9.09377670288086
1753052504535,-1.7747019529342651,-4.322132587432861,
1753052504536,-2.0859482288360596,,10.659584045410156
1753052504584,,-3.115454912185669,
1753052504585,-0.44831427931785583,-4.116231441497803,10.817602157592773
1753052504635,,-4.31255578994751,
1753052504636,-1.6310498714447021,,10.712257385253906
1753052504684,,-4.906317710876465,
1753052504685,-3.3740286827087402,-5.413888454437256,8.22228717803955
1753052504735,-2.8425159454345703,-4.245518207550049,7.580641269683838
1753052504786,-2.5983073711395264,-4.532822132110596,8.662819862365723
1753052504835,,-3.9246952533721924,
1753052504836,-3.421912670135498,,7.9876556396484375
1753052504884,-1.3341689109802246,-3.838503837585449,7.082647323608398
1753052504935,,-1.9470845460891724,
1753052504936,-2.564788579940796,,6.627748966217041
1753052504984,,-5.37558126449585,
1753052504985,-1.204882025718689,,9.730634689331055
1753052505035,,-2.564788579940796,
1753052505036,-3.5895068645477295,,5.612607479095459
1753052505084,,-4.810549736022949,
1753052505085,-1.932719349861145,,8.164826393127441
1753052505135,,-4.374804973602295,
1753052505136,-3.292625904083252,,9.299677848815918
1753052505184,,-2.962226152420044,
1753052505185,-1.425148606300354,,7.00124454498291
1753052505235,,-2.981379747390747,
1753052505236,-1.3724761009216309,,8.744223594665527
1753052505284,-1.8944120407104492,-3.3692402839660645,
1753052505285,,,7.71471643447876
1753052505335,,-4.350862979888916,
1753052505336,-2.2200236320495605,,8.964489936828613
1753052505384,,-3.575141668319702,
1753052505385,-2.3062148094177246,-3.977367639541626,7.652467250823975
1753052505435,,-3.800196647644043,
1753052505436,-2.1769278049468994,,7.949347972869873
1753052505484,,-3.5416228771209717,
1753052505485,-2.11946702003479,-3.9007530212402344,7.906252384185791
1753052508990,,-4.207211017608643,
1753052508991,-1.9853917360305786,-4.365228176116943,8.830414772033691
1753052508992,-2.8808231353759766,-3.3500866889953613,8.993220329284668
1753052508995,-3.1441853046417236,-3.5847184658050537,8.67718505859375
1753052509047,-1.856104850769043,-3.642179250717163,8.97885513305664
1753052509098,-1.3389573097229004,-3.397970676422119,6.919841289520264
1753052509147,,-3.9630024433135986,
1753052509148,-1.999756932258606,,9.572616577148438
1753052509406,,-4.441842555999756,
1753052509407,-2.1960813999176025,-4.350862979888916,7.4752960205078125
1753052509412,-1.1665748357772827,-5.495291233062744,10.34833812713623
1753052509462,,-5.490502834320068,
1753052509463,-1.7220295667648315,-5.490502834320068,12.646772384643555
1753052509513,,-4.269460201263428,
1753052509514,-1.4107834100723267,-4.4274773597717285,9.864709854125977
1753052510766,-3.7235822677612305,-3.800196647644043,8.217498779296875
1753052510769,-0.07003039866685867,-4.518456935882568,10.286088943481445
1753052510817,,-4.365228176116943,
1753052510818,-2.1577742099761963,-3.359663486480713,7.135319709777832
1753052510868,,-3.5942952632904053,
1753052510869,,-5.188833713531494,
1753052510870,-3.053205728530884,,8.701127052307129
1753052510918,-1.8417396545410156,-4.192845821380615,7.891887187957764
1753052520500,,-3.488950490951538,
1753052520501,-2.344521999359131,,7.537545680999756
1753052520502,,,7.7434468269348145
1753052520503,-3.072359323501587,,7.97329044342041
1753052520504,-2.962226152420044,,9.586981773376465
1753052520505,,-4.475361347198486,9.409811019897461
1753052520506,,-5.212775707244873,
1753052520555,-2.0380642414093018,-5.083488941192627,8.193556785583496
1753052520606,-1.8417396545410156,-5.260659694671631,9.275735855102539
1753052520655,-2.9765913486480713,-5.495291233062744,8.351573944091797
1753052520705,,-5.629366874694824,
1753052520706,-1.8656816482543945,-4.4274773597717285,10.094552993774414
1753052520746,,-5.394734859466553,
1753052520747,-2.7994203567504883,,9.716269493103027
1753052520794,-1.4107834100723267,-5.610213279724121,
1753052520795,-2.4355015754699707,,9.462483406066895
1753052520846,,-4.791396141052246,
1753052520847,-1.6502034664154053,-5.456984043121338,8.844779968261719
1753052520894,,-4.599860191345215,
1753052520896,-1.4586673974990845,,7.599794864654541
1753052520945,-2.741959571838379,-6.084265232086182,10.942100524902344
1753052524720,,-5.476137638092041,
1753052524721,-2.785055160522461,-5.150526523590088,8.452130317687988
1753052524725,-1.1665748357772827,-3.5703532695770264,8.969278335571289
1753052524777,-1.0708067417144775,-4.604648590087891,
1753052524778,-1.2623428106307983,,9.419387817382812
1753052524826,-2.1960813999176025,-4.930259704589844,9.347561836242676
1753052528318,,-5.1361613273620605,
1753052528320,,-4.887164115905762,
1753052528321,-1.9231425523757935,-4.518456935882568,
1753052528322,-2.1290438175201416,,
1753052528323,-1.592742681503296,,
1753052528324,-3.024475336074829,,9.170391082763672
1753052528361,,-4.748300552368164,
1753052528362,-3.153762102127075,,8.921394348144531
1753052528412,-1.6980875730514526,-3.1441853046417236,7.264606475830078
1753052528461,,-5.054758548736572,
1753052528462,-3.0388405323028564,-4.049193859100342,10.108918190002441
1753052528489,-1.0995371341705322,-3.426701068878174,8.432976722717285
1753052528537,-3.048417329788208,-4.52803373336792,6.919841289520264
1753052528587,,-4.192845821380615,
1753052528588,-3.5224692821502686,-4.619013786315918,7.9397711753845215
1753052528637,-3.1681272983551025,-5.825691223144531,7.101800918579102
1753052528688,-3.3644518852233887,-2.957437753677368,
1753052528689,,,5.7993550300598145
1753052528737,,-4.896740913391113,
1753052528738,-1.9853917360305786,,8.902240753173828
1753052528788,,-4.245518207550049,
1753052528789,-3.9677908420562744,,6.780977725982666
1753052528861,-1.449090600013733,-4.2550950050354,9.242217063903809
1753052528864,,-4.700416564941406,
1753052528865,-3.0340521335601807,,8.825626373291016
1753052528913,-3.7235822677612305,-5.107430934906006,8.562263488769531
1753052528962,-2.339733600616455,-5.198410511016846,9.304466247558594
1753052528963,,,7.906252384185791
1753052529014,-3.9199066162109375,-4.566341400146484,7.666832447052002
1753052529062,-2.4211363792419434,-4.662109375,8.801684379577637
1753052529114,-4.1880574226379395,-4.915894508361816,7.824849605560303
1753052529162,,-4.504091739654541,
1753052529163,-2.057217836380005,-4.432265758514404,8.270171165466309
1753052529214,-4.020462989807129,-4.547187805175781,8.183979988098145
1753052529262,,-4.829703330993652,
1753052529263,-1.8704700469970703,-4.791396141052246,10.199897766113281
1753052529427,,-4.374804973602295,
1753052529428,-2.6126725673675537,-4.049193859100342,9.237428665161133
1753052529434,-2.8377275466918945,-4.178480625152588,8.835203170776367
1753052529435,,,9.64923095703125
1753052529485,,-4.259883403778076,
1753052529486,-2.804208755493164,-4.78660774230957,8.744223594665527
1753052529536,,-5.145738124847412,
1753052529537,-3.3500866889953613,,10.252570152282715
1753052529586,-2.981379747390747,-3.996521234512329,8.768165588378906
1753052529637,-2.4211363792419434,-3.8815994262695312,8.863933563232422
1753052529686,,-5.217564105987549,
1753052529687,-4.082712650299072,-3.5224692821502686,10.13286018371582
1753052529735,,-4.245518207550049,
1753052529736,-3.666121244430542,-4.551976203918457,8.107365608215332
1753052529786,,-3.158550500869751,
1753052529787,-1.7363947629928589,-2.5935189723968506,11.291653633117676
1753052529835,,-4.87758731842041,
1753052529836,-5.7107696533203125,-5.088277339935303,10.444106101989746
1753052529886,,-4.288613796234131,
1753052529887,-1.8225860595703125,-5.117007732391357,8.183979988098145
1753052529935,,-2.895188331604004,
1753052529936,-3.512892484664917,,6.656479358673096
1753052529986,,-3.2112231254577637,
1753052529987,-0.5919663906097412,,11.430517196655273
1753052530035,-2.9047651290893555,-3.3692402839660645,
1753052530036,-3.90554141998291,,6.450577735900879
1753052530086,,-3.1010897159576416,
1753052530087,-1.8082208633422852,,9.634865760803223
1753052530135,,-4.614225387573242,
1753052530136,-1.0468647480010986,,10.65479564666748
1753052530186,-3.3261446952819824,-3.7187938690185547,8.24622917175293
1753052530235,,-4.298190593719482,
1753052530236,-1.5640122890472412,,9.831191062927246
1753052530286,,-4.0300397872924805,
1753052530287,-3.0340521335601807,,8.437765121459961
1753052530335,,-3.78104305267334,
1753052530336,-0.8984242081642151,-3.7858314514160156,9.405022621154785
1753052530386,,-3.555988073348999,
1753052530387,-2.081159830093384,-3.383605480194092,8.09778881072998
1753052530435,,-4.001309394836426,
1753052530436,-2.1098902225494385,-3.934272050857544,8.8878755569458
1753052530486,,-3.421912670135498,
1753052530487,-1.3772644996643066,,9.03631591796875
1753052530535,,-2.8808231353759766,
1753052530536,-1.1713632345199585,-2.7323827743530273,10.40579891204834
1753052530586,0.9307458996772766,-2.8137855529785156,
1753052530587,-0.7739257216453552,,10.37228012084961
1753052530635,,-3.2591071128845215,
1753052530636,-1.8513164520263672,-3.4362781047821045,9.371503829956055
1753052530687,-1.5831658840179443,-3.488950490951538,9.3427734375
1753052530735,,-3.4602200984954834,
1753052530736,-0.7643488645553589,-3.694851875305176,10.448894500732422
1753052530786,,-3.230376720428467,
1753052530787,-1.6502034664154053,,9.122507095336914
1753052530835,,-3.18249249458313,
1753052530836,-1.3198037147521973,,9.088988304138184
1753052530886,-0.5919663906097412,-3.0196869373321533,
1753052530887,,,10.468048095703125
1753052530935,,-2.981379747390747,
1753052530936,-1.1091139316558838,,8.394669532775879
1753052530967,-2.0907366275787354,-3.316567897796631,9.59177017211914
1753052531016,,-3.1872811317443848,
1753052531017,-0.49619829654693604,,9.730634689331055
1753052531067,-1.0947487354278564,-3.1920695304870605,9.3427734375
1753052531116,,-3.1681272983551025,
1753052531117,-1.2096704244613647,-3.3069911003112793,9.539097785949707
1753052531167,,-3.2351651191711426,
1753052531168,-1.4969745874404907,,9.677961349487305
1753052531216,-0.778714120388031,-3.5416228771209717,
1753052531217,,,10.3148193359375
1753052531268,-1.3437457084655762,-3.4314894676208496,9.879075050354004
1753052531318,-2.188898801803589,-3.266289710998535,10.108918190002441
1753052531368,,-3.6709096431732178,
1753052531369,-1.4634557962417603,,9.634865760803223
1753052531418,-1.30543851852417,-3.8959646224975586,11.183915138244629
1753052531466,,-2.964620351791382,
1753052531467,-1.1210849285125732,,9.347561836242676
1753052531518,-0.9774328470230103,-3.6996402740478516,10.142436981201172
1753052531568,-1.1929110288619995,-3.3261446952819824,
1753052531569,,,8.634089469909668
1753052531618,-1.8704700469970703,-3.273472309112549,9.620500564575195
1753052531668,-1.0013748407363892,-3.558382272720337,9.64683723449707
1753052531717,-1.7052701711654663,-3.752312660217285,10.173561096191406
1753052531767,,-3.716399669647217,
1753052531768,-0.943913996219635,,10.379463195800781
1753052531818,-0.14664486050605774,-3.4554316997528076,10.877456665039062
1753052531867,,-3.6349966526031494,
1753052531868,-1.326986312866211,,10.781688690185547
1753052531917,-0.7739257216453552,-3.7475242614746094,
1753052531918,-2.033275842666626,,9.278130531311035
1753052531966,,-4.458601951599121,
1753052531967,0.22206220030784607,,11.241375923156738
1753052532017,-2.7706899642944336,-3.692457675933838,7.757812023162842
1753052532067,-0.7451952695846558,-3.666121244430542,9.239823341369629
1753052532117,,-4.168903827667236,
1753052532118,-1.8584990501403809,,10.513538360595703
1753052532167,-1.7627309560775757,-4.544793605804443,9.503185272216797
1753052532216,,-4.619013786315918,
1753052532217,-1.9303251504898071,,10.061034202575684
1753052532267,-4.343680381774902,-4.990114688873291,
1753052532268,-4.853645324707031,,6.903081893920898
1753052532317,,-4.283825397491455,
1753052532318,-1.1953052282333374,-4.1880574226379395,11.205462455749512
1753052532367,-1.6525976657867432,-3.244741916656494,8.58620548248291
1753052532417,-0.9870096445083618,-4.006097793579102,9.304466247558594
1753052532466,,-4.283825397491455,
1753052532467,-2.5791537761688232,,7.434594631195068
1753052532517,-2.7036523818969727,-3.6493618488311768,
1753052532518,-1.1426327228546143,,7.901463985443115
1753052532567,-1.4826093912124634,-4.621407985687256,
1753052532617,-1.810615062713623,-4.578312397003174,9.905410766601562
1753052532667,-1.6478092670440674,-4.288613796234131,9.529520988464355
1753052532716,,-4.053982257843018,
1753052532717,-2.0476410388946533,,9.40023422241211
1753052532767,-1.8632874488830566,-4.774636745452881,10.480019569396973
1753052532817,,-4.281431198120117,
1753052532818,-1.1115081310272217,,9.141660690307617
1753052532867,-2.121861219406128,-3.9270894527435303,8.387487411499023
1753052532917,-2.258330821990967,-4.154538631439209,
1753052532918,,,8.670002937316895
1753052532966,-1.245583415031433,-3.9677908420562744,
1753052532967,-1.8417396545410156,,9.388263702392578
1753052533017,-2.471414804458618,-4.714781761169434,8.488043785095215
1753052533067,-2.380434989929199,-3.773860454559326,7.844003200531006
1753052533116,,-3.7403416633605957,
1753052533117,-1.3078327178955078,,8.322843551635742
1753052533166,,-3.6062662601470947,
1753052533167,-2.294243812561035,-3.757101058959961,7.978078842163086
1753052533218,-1.8010382652282715,-4.465784549713135,9.723451614379883
1753052533267,-1.688510775566101,-4.044404983520508,7.999626636505127
1753052533317,,-4.4945149421691895,
1753052533318,-2.258330821990967,,9.053074836730957
1753052533367,-2.536058187484741,-4.410717964172363,8.813654899597168
1753052533416,,-4.511274337768555,
1753052533417,-1.877652645111084,,9.03631591796875
1753052533466,,-4.87758731842041,
1753052533467,-1.8010382652282715,,9.151237487792969
1753052533517,-2.097919225692749,-4.554370403289795,8.658031463623047
1753052533567,-2.117072820663452,-4.441842555999756,8.689156532287598
1753052533616,,-4.824914932250977,
1753052533617,-1.5592238903045654,,9.77133560180664
1753052533666,,-5.155314922332764,
1753052533667,-2.6150667667388916,-5.126584529876709,9.984419822692871
1753052533716,,-4.642955780029297,
1753052533717,-1.2767080068588257,,9.021950721740723
1753052533766,,-4.57112979888916,
1753052533767,-2.1745336055755615,-4.5160627365112305,8.897452354431152
1753052533816,,-5.021239280700684,
1753052533817,-2.100313425064087,-5.277419090270996,9.630077362060547
1753052533866,,-5.128978729248047,
1753052533867,-1.3748703002929688,-5.344456672668457,9.77133560180664
1753052533917,-2.5504233837127686,-5.401917457580566,9.371503829956055
1753052533965,,-4.619013786315918,
1753052533966,-1.2312182188034058,-5.196016311645508,10.152013778686523
1753052534016,,-5.2247467041015625,
1753052534017,-2.390011787414551,,8.7083101272583
1753052534066,,-4.245518207550049,
1753052534067,-0.639850378036499,-4.970961093902588,8.234258651733398
1753052534116,,-4.846462726593018,
1753052534117,-3.4410665035247803,-4.796184539794922,8.612542152404785
1753052534167,-2.3325510025024414,-4.654926776885986,7.599794864654541
1753052534216,-2.0644004344940186,-4.444236755371094,8.112154006958008
1753052534267,-2.095525026321411,-4.750694751739502,8.13370132446289
1753052534316,,-4.166509628295898,
1753052534317,-2.0907366275787354,-4.326920986175537,8.67479133605957
1753052534366,,-4.8704047203063965,
1753052534367,-0.982221245765686,-4.896740913391113,9.28531265258789
1753052534416,,-5.143343925476074,
1753052534417,-2.4402899742126465,,9.3427734375
1753052534466,-1.5352818965911865,-4.882375717163086,9.630077362060547
1753052534517,-1.956661343574524,-5.2893900871276855,9.507973670959473
1753052534567,-1.4538789987564087,-5.179256916046143,9.835979461669922
1753052534616,,-4.1425676345825195,
1753052534617,-1.2288240194320679,,9.067440032958984
1753052534667,-0.6805518269538879,-4.726752758026123,9.407417297363281
1753052534716,,-4.118625640869141,
1753052534717,-1.4778209924697876,,8.435371398925781
1753052534766,,-4.765059947967529,
1753052534767,-2.380434989929199,-4.13059663772583,8.511985778808594
1753052534816,,-4.0300397872924805,
1753052534817,-0.5991489887237549,,9.06983470916748
1753052534866,,-3.9677908420562744,
1753052534867,-1.7603367567062378,-3.7403416633605957,8.13370132446289
1753052534916,,-4.334103584289551,
1753052534917,0.14784196019172668,-4.958990097045898,9.847949981689453
1753052534966,-2.409165382385254,-4.8488569259643555,
1753052534967,,,9.3427734375
1753052535016,-0.6326677799224854,-4.882375717163086,
1753052535017,-1.3221979141235352,,9.814431190490723
1753052535066,,-4.724358558654785,
1753052535067,-2.0260932445526123,-5.124190330505371,9.462483406066895
1753052535117,-1.3628993034362793,-5.217564105987549,10.185532569885254
1753052535166,-0.8792705535888672,-4.144961833953857,9.407417297363281
1753052535216,-1.4586673974990845,-5.066729545593262,9.764153480529785
1753052535266,,-4.796184539794922,
1753052535267,-1.269525408744812,-4.729146957397461,9.685144424438477
1753052535317,-1.2862848043441772,-4.434659957885742,9.606135368347168
1753052535366,,-4.492120742797852,
1753052535367,-0.7858967185020447,-4.393958568572998,9.088988304138184
1753052535416,,-4.4825439453125,
1753052535417,-1.4538789987564087,,9.06983470916748
1753052535466,,-4.58310079574585,
1753052535467,-1.5161281824111938,,8.526350975036621
1753052535517,-0.884058952331543,-4.506485939025879,9.560646057128906
1753052535567,-1.0851719379425049,-4.006097793579102,9.37629222869873
1753052535616,,-4.748300552368164,
1753052535617,-1.1665748357772827,-4.513668537139893,9.366715431213379
1753052535666,,-3.958214044570923,
1753052535667,0.2890998423099518,-4.092289447784424,10.37228012084961
1753052535716,-0.03890577703714371,-4.032433986663818,
1753052535717,-1.4371196031570435,,8.942941665649414
1753052535767,-0.9127894043922424,-4.0994720458984375,9.314043045043945
1753052535816,,-4.587889194488525,
1753052535817,-1.5328876972198486,-4.535216331481934,9.481637001037598
1753052535867,-1.3317747116088867,-4.334103584289551,9.496002197265625
1753052535917,-0.6733692288398743,-3.843292236328125,9.268553733825684
1753052535966,,-3.714005470275879,
1753052535967,-0.3669114112854004,,8.875904083251953
1753052536016,,-3.9486372470855713,
1753052536017,-1.2982559204101562,,8.892663955688477
1753052536067,-0.5752069354057312,-4.125808238983154,8.629301071166992
1753052536094,-0.6446388363838196,-3.2806549072265625,8.571840286254883
1753052536111,,-4.245518207550049,
1753052536112,-0.32620999217033386,,9.469666481018066
1753052536130,-1.1402385234832764,-4.40353536605835,10.453682899475098
1753052536151,,-4.092289447784424,
1753052536152,-1.5065513849258423,-3.6804866790771484,9.534309387207031
1753052536172,,-3.733159065246582,
1753052536173,-0.11791443079710007,-4.159327030181885,8.839991569519043
1753052536188,-0.8744821548461914,-4.049193859100342,9.419387817382812
1753052536190,-0.3477577865123749,-3.9917328357696533,9.764153480529785
1753052536200,,-4.489726543426514,
1753052536201,-1.1186907291412354,,9.673172950744629
1753052536211,-1.425148606300354,-4.504091739654541,9.567828178405762
1753052536273,,-4.235941410064697,
1753052536274,-1.0181342363357544,-3.931877851486206,9.677961349487305
1753052536323,,-4.561553001403809,
1753052536324,-0.618302583694458,,10.310030937194824
1753052536374,-0.9798270463943481,-4.152144432067871,9.122507095336914
1753052536423,-0.7835025191307068,-4.329315185546875,9.48882007598877
1753052536474,0.05925649031996727,-3.378817081451416,9.088988304138184
1753052536523,,-4.1425676345825195,
1753052536524,-1.2767080068588257,,10.003573417663574
1753052536573,,-4.003703594207764,
1753052536574,0.19812019169330597,-4.092289447784424,9.594164848327637
1753052536622,,-3.737947463989258,
1753052536623,-1.1210849285125732,-4.305373191833496,8.150461196899414
1753052536673,-0.25677812099456787,-4.257489204406738,10.175955772399902
1753052536723,,-3.5703532695770264,
1753052536724,-1.425148606300354,,7.642890453338623
1753052536772,,-4.018068790435791,
1753052536773,-0.8265981078147888,-4.132990837097168,9.225458145141602
1753052536822,,-4.075530052185059,
1753052536823,-0.8577227592468262,-4.094683647155762,9.311649322509766
1753052536873,-0.39564183354377747,-4.34607458114624,9.907805442810059
1753052536923,-0.21128830313682556,-4.020462989807129,9.912593841552734
1753052536974,-0.7691373229026794,-4.7818193435668945,9.567828178405762
1753052537022,,-4.22157621383667,
1753052537023,-0.08918401598930359,-4.3628339767456055,10.28130054473877
1753052537073,-1.5304933786392212,-4.417900562286377,
1753052537074,,,9.328408241271973
1753052537123,0.2364274114370346,-3.869628429412842,10.776900291442871
1753052537173,-0.49140989780426025,-3.998915433883667,
1753052537174,-0.6901286244392395,,9.61331844329834
1753052537223,,-4.468178749084473,
1753052537224,-0.24001872539520264,-3.773860454559326,10.9492826461792
1753052537273,-0.2687491476535797,-3.6349966526031494,9.294889450073242
1753052537323,-0.24480712413787842,-3.883993625640869,9.345168113708496
1753052537373,-0.8720879554748535,-4.334103584289551,10.410587310791016
1753052537422,,-3.9701850414276123,
1753052537423,-0.9175778031349182,-3.9462430477142334,8.701127052307129
1753052537474,-0.5464765429496765,-3.867234230041504,10.661978721618652
1753052537523,0.4040215313434601,-3.819350242614746,9.91738224029541
1753052537573,,-3.8552632331848145,
1753052537574,-0.11312603205442429,,10.053851127624512
1753052537622,,-3.4961330890655518,
1753052537623,-0.5273229479789734,,8.983643531799316
1753052537673,-0.3429693877696991,-3.515286684036255,9.67077922821045
1753052537674,,,9.19433307647705
1753052537723,,-3.840898036956787,
1753052537724,-1.1306617259979248,-3.555988073348999,10.161590576171875
1753052537773,-0.42676645517349243,-3.7235822677612305,9.472060203552246
1753052537823,-1.204882025718689,-3.5679590702056885,9.493608474731445
1753052537874,0.5213374495506287,-4.307767391204834,10.254964828491211
1753052537924,0.7080851793289185,-4.17608642578125,10.52790355682373
1753052537974,,-3.663727045059204,
1753052537975,-0.9319429993629456,,8.236652374267578
1753052538022,,-3.5488054752349854,
1753052538023,0.1215057373046875,-3.737947463989258,8.51677417755127
1753052538074,-1.2527660131454468,-3.5176808834075928,9.39784049987793
1753052538123,-0.5704185366630554,-3.558382272720337,8.76337718963623
1753052538173,,-2.825756549835205,
1753052538174,-0.7164648771286011,,8.40424633026123
1753052538224,-0.8122329115867615,-3.512892484664917,8.150461196899414
1753052538273,-1.1354501247406006,-3.6086604595184326,
1753052538274,,,8.298901557922363
1753052538323,,-3.5296518802642822,
1753052538324,-1.1713632345199585,,8.200738906860352
1753052538374,-1.789067268371582,-3.8097734451293945,8.346785545349121
1753052538423,-2.0715830326080322,-4.3173441886901855,7.745841026306152
1753052538474,,-4.257489204406738,
1753052538475,-2.935889720916748,-4.238335609436035,7.8727335929870605
1753052538523,-0.012569558806717396,-4.010886192321777,
1753052538524,,,9.857526779174805
1753052538573,,-3.1968579292297363,
1753052538574,-1.391629695892334,-3.2375593185424805,8.40424633026123
1753052538622,,-4.2742486000061035,
1753052538623,-1.1378443241119385,-4.602254390716553,9.225458145141602
1753052538673,-2.143409013748169,-4.460996150970459,
1753052538674,-2.251148223876953,,8.646060943603516
1753052538724,-1.2407950162887573,-3.7906198501586914,
1753052538725,,,9.335591316223145
1753052538773,,-3.642179250717163,
1753052538774,-1.856104850769043,-3.7427358627319336,8.109759330749512
1753052538822,,-4.456207752227783,
1753052538823,-1.9015947580337524,,8.579023361206055
1753052538873,,-4.499303340911865,
1753052538874,-2.0260932445526123,,9.304466247558594
1753052538923,-1.9470845460891724,-4.211999416351318,8.03075122833252
1753052538974,-2.627037763595581,-4.314949989318848,8.265382766723633
1753052538975,,,8.921394348144531
1753052539022,,-4.690839767456055,
1753052539023,-1.932719349861145,-4.444236755371094,9.170391082763672
1753052539073,-2.121861219406128,-4.171298027038574,8.0331449508667
1753052539123,-3.0125043392181396,-4.808155536651611,8.610147476196289
1753052539173,-1.568800687789917,-4.197634220123291,8.67479133605957
1753052539223,,-4.2742486000061035,
1753052539224,-2.1577742099761963,,9.266159057617188
1753052539273,-1.8608932495117188,-4.204816818237305,
1753052539274,,,8.40185260772705
1753052539323,-2.006939649581909,-4.015674591064453,8.167220115661621
1753052539373,,-4.817732334136963,
1753052539374,-2.366069793701172,-4.343680381774902,8.861538887023926
1753052539422,,-4.525639533996582,
1753052539423,-2.294243812561035,-4.5639472007751465,9.079411506652832
1753052539476,-2.1769278049468994,-4.379593372344971,
1753052539477,-2.227206230163574,,8.636484146118164
1753052539523,,-4.52803373336792,
1753052539524,-2.586336374282837,,8.476072311401367
1753052539576,,-4.853645324707031,
1753052539578,-2.80899715423584,,9.800065994262695
1753052539623,-0.4076128304004669,-2.5312697887420654,7.48726749420166
1753052539673,-3.7906198501586914,-4.9350481033325195,9.01476764678955
1753052539724,,-4.302978992462158,
1753052539725,0.6769605278968811,-4.350862979888916,8.880692481994629
1753052539775,-5.064335346221924,-4.137779235839844,5.938218593597412
1753052539823,-1.3844470977783203,-4.721964359283447,8.909422874450684
1753052539873,-2.5288755893707275,-5.117007732391357,8.770559310913086
1753052539923,-1.1617863178253174,-3.244741916656494,9.378686904907227
1753052539974,-2.0476410388946533,-4.595071792602539,8.892663955688477
1753052540023,-2.1529858112335205,-4.168903827667236,9.879075050354004
1753052540073,-1.247977614402771,-4.063559055328369,9.867103576660156
1753052540123,,-3.958214044570923,
1753052540124,-1.875258445739746,,8.760982513427734
1753052540174,-2.188898801803589,-4.839280128479004,9.946112632751465
1753052540224,-1.8920178413391113,-3.4626142978668213,
1753052540225,-2.212841033935547,,7.899069786071777
1753052540273,,-4.2527008056640625,
1753052540274,-2.7730841636657715,-4.190451622009277,8.672396659851074
1753052540323,-1.5161281824111938,-3.953425645828247,9.388263702392578
1753052540373,,-3.7427358627319336,
1753052540374,-1.1162965297698975,,8.231863975524902
1753052540422,,-3.6278140544891357,
1753052540423,-1.5975310802459717,-3.910329818725586,9.041104316711426
1753052540474,-2.5743653774261475,-4.310161590576172,7.745841026306152
1753052540523,-2.0428526401519775,-4.709993362426758,
1753052540524,,,10.27890682220459
1753052540573,-2.5935189723968506,-4.061164855957031,
1753052540574,,,9.148842811584473
1753052540622,,-3.9390604496002197,
1753052540623,-1.5017629861831665,,8.851962089538574
1753052540672,-2.3110032081604004,-3.7499184608459473,
1753052540673,-2.7084407806396484,,8.78731918334961
1753052540723,-2.476203203201294,-4.3628339767456055,9.225458145141602
1753052540773,-2.3756465911865234,-4.386775970458984,9.462483406066895
1753052540823,-2.3780407905578613,-4.2742486000061035,9.627683639526367
