timestamp,AccX,AccY,AccZ
1753063230099,-1.225232720375061,4.291007995605469,8.087015151977539
1753063230149,-0.801459014415741,4.065953254699707,9.503185272216797
1753063230198,-0.21607670187950134,4.475361347198486,8.472481727600098
1753063230248,-0.49978959560394287,,
1753063230249,-1.24917471408844,4.046799659729004,10.70986270904541
1753063230299,-1.1378443241119385,4.275445461273193,10.560225486755371
1753063230350,-0.1538274586200714,4.462193489074707,7.201159954071045
1753063230383,-0.23044191300868988,4.768651008605957,5.896320343017578
1753063230429,-2.9969420433044434,,
1753063230430,,3.180098295211792,9.117718696594238
1753063230481,0.20769700407981873,6.079476833343506,7.75900936126709
1753063230529,-1.7950527667999268,,
1753063230530,-0.9259575009346008,4.846462726593018,10.110115051269531
1753063230580,-0.6290764808654785,4.012083530426025,9.379883766174316
1753063230629,-1.876455545425415,,
1753063230630,-2.876034736633301,4.200028419494629,8.684368133544922
1753063230681,-1.5496470928192139,5.539584159851074,8.502408981323242
1753063230728,-0.44352585077285767,,
1753063230729,1.1210849285125732,,
1753063230731,,4.44782829284668,6.797737121582031
1753063230780,0.03770867735147476,4.0563764572143555,10.110115051269531
1753063230821,-0.046088382601737976,3.7020344734191895,9.955689430236816
1753063230897,-0.7846996188163757,4.065953254699707,7.923011779785156
1753063230932,-1.0432734489440918,4.322132587432861,9.430161476135254
1753063230986,-0.7571662664413452,,
1753063230987,-0.5237316489219666,4.302978992462158,10.014347076416016
1753063231030,-0.42676645517349243,,
1753063231031,,4.361637115478516,7.420229434967041
1753063231081,-1.6573861837387085,5.054758548736572,
1753063231082,,,8.322843551635742
1753063231130,-1.370081901550293,,
1753063231131,-1.4287399053573608,4.581903457641602,7.659649848937988
1753063231181,-1.4778209924697876,4.507683277130127,7.295731067657471
1753063231230,-0.7380126714706421,,
1753063231231,-0.14664486050605774,,
1753063231232,,4.308964729309082,9.10574722290039
1753063231282,-0.30226796865463257,,
1753063231283,,3.553593873977661,8.860342025756836
1753063231325,-1.9470845460891724,,
1753063231326,,2.9538464546203613,6.2650275230407715
1753063231381,0.03770867735147476,,
1753063231382,,1.63344407081604,6.1070098876953125
1753063231432,-4.352060317993164,,
1753063231433,,0.8457517623901367,7.095815181732178
1753063231460,-3.6086604595184326,0.921169102191925,7.53275728225708
1753063231483,-3.601477861404419,,
1753063231484,,0.3250128924846649,7.118560314178467
1753063231531,-4.3173441886901855,-2.390011787414551,4.015674591064453
1753063231580,-11.970410346984863,,
1753063231581,-13.120823860168457,-9.330802917480469,2.05123233795166
1753063231629,-10.144830703735352,-5.2450971603393555,6.5044474601745605
1753063231680,-10.063427925109863,,
1753063231681,,-7.033565998077393,3.618237257003784
1753063231730,-13.538612365722656,,
1753063231731,-14.624382972717285,-6.997653007507324,4.763862609863281
1753063231778,-16.794727325439453,,
1753063231779,,-9.03511905670166,1.3652935028076172
1753063231780,-13.090896606445312,-6.540360450744629,-8.780136108398438
1753063231830,-6.789357662200928,,
1753063231831,,-7.362768650054932,-0.10594342648983002
1753063231880,-11.198280334472656,,
1753063231881,,-9.169194221496582,6.859986305236816
1753063231928,-2.4881742000579834,-6.352415561676025,
1753063231929,,,17.30349349975586
1753063231931,5.90589714050293,-3.599083662033081,12.323554992675781
1753063231981,-5.324106216430664,-5.055955410003662,-4.053982257843018
1753063232030,-5.546766757965088,,
1753063232031,,0.6123170852661133,-8.180388450622559
1753063232081,-15.080477714538574,-11.543045043945312,1.809417963027954
1753063232106,-26.32125473022461,-15.08167552947998,-1.1965023279190063
1753063232148,-10.114903450012207,-11.243769645690918,1.9602526426315308
1753063232181,-3.935469150543213,-9.157222747802734,0.9127894043922424
1753063232225,-12.737751960754395,-9.200318336486816,8.33601188659668
1753063232226,,,0.15143325924873352
1753063232281,-19.757551193237305,-10.779294967651367,
1753063232282,,-5.115810394287109,-1.854907751083374
1753063232334,-0.08559270948171616,0.2495955228805542,4.024054527282715
1753063232388,-10.505158424377441,-6.937798023223877,
1753063232389,,-8.960898399353027,-5.264250755310059
1753063232437,-4.3209357261657715,-9.663596153259277,-2.932298421859741
1753063232468,-5.0463786125183105,,
1753063232469,,-10.42615032196045,-3.200449228286743
1753063232487,-1.9387048482894897,,
1753063232488,,-8.206725120544434,-4.235941410064697
1753063232534,10.940903663635254,-6.1991868019104,0.16340427100658417
1753063232584,5.338471412658691,-8.004414558410645,-1.5723919868469238
1753063232634,-12.677896499633789,-9.869498252868652,-6.243479251861572
1753063232683,-5.890334606170654,,
1753063232684,-0.9367313981056213,-8.885480880737305,-4.61781644821167
1753063232733,-3.7618894577026367,,
1753063232734,,-11.916540145874023,-0.12389993667602539
1753063232783,-4.013280391693115,,
1753063232784,-3.4075474739074707,-8.341997146606445,-2.74076247215271
1753063232833,-0.7164648771286011,,
1753063232834,,-9.867103576660156,-2.7503392696380615
1753063232883,-1.1857284307479858,,
1753063232884,-1.8369512557983398,-9.819219589233398,-2.757521867752075
1753063232935,-4.4825439453125,,
1753063232936,-3.177704095840454,-5.349245071411133,-4.31135892868042
1753063232983,-2.6868927478790283,,
1753063232984,,-9.316437721252441,-2.386420488357544
1753063233034,-2.7730841636657715,-6.812102317810059,-4.095880508422852
1753063233084,-2.3517045974731445,-9.768941879272461,-4.2515034675598145
1753063233134,-5.191227912902832,-7.144896507263184,-2.9538464546203613
1753063233184,-5.2678422927856445,-5.207987308502197,-1.0767922401428223
1753063233233,-3.2375593185424805,,
1753063233234,-4.561553001403809,-5.6892218589782715,-3.5069069862365723
1753063233283,3.559579372406006,,
1753063233284,-3.6493618488311768,0.08798690885305405,-4.045602321624756
1753063233334,3.111863613128662,,
1753063233335,-0.6039373874664307,-15.622764587402344,-2.9107506275177
1753063233384,-3.354875087738037,-10.108918190002441,-7.18440055847168
1753063233385,,,-2.5324668884277344
1753063233436,-1.0372878313064575,-5.741894245147705,0.5129576921463013
1753063233483,-0.8457517623901367,,
1753063233484,-0.6997054219245911,-13.506290435791016,-11.972804069519043
1753063233535,1.7232266664505005,-13.125612258911133,-5.190030574798584
1753063233584,-0.5656301379203796,,
1753063233585,,-6.062717437744141,-4.153341293334961
1753063233635,-0.7882909178733826,-8.976460456848145,-7.050325393676758
1753063233684,-1.7076643705368042,-6.809708118438721,-5.836465358734131
1753063233733,-0.9534908533096313,,
1753063233734,-1.2000936269760132,-7.71471643447876,-5.958569526672363
1753063233784,-1.1689690351486206,-7.865550994873047,-6.102221488952637
1753063233835,-1.0109516382217407,,
1753063233836,-0.7571662664413452,-7.693168640136719,
1753063233838,,,-5.989694118499756
1753063233885,-0.6877344250679016,-7.913434982299805,-5.896320343017578
1753063233936,-0.900818407535553,,
1753063233937,-0.6542156338691711,-7.820061206817627,-5.908291339874268
1753063233983,-0.6853402256965637,,
1753063233984,-0.6590040326118469,-7.9397711753845215,-5.625775337219238
1753063234034,0.04010287672281265,,
1753063234035,,-8.485649108886719,-5.745485305786133
1753063234083,0.3800795078277588,,
1753063234084,0.3321954905986786,-7.9397711753845215,-5.391143798828125
1753063234134,-0.0628477931022644,,
1753063234135,-0.9750386476516724,-8.432976722717285,-5.858013153076172
1753063234184,-1.4203602075576782,-7.674015045166016,-6.016030311584473
1753063234235,-1.1737574338912964,-7.899069786071777,-6.140528678894043
1753063234286,-1.5879542827606201,-8.004414558410645,-6.243479251861572
1753063234336,-0.6877344250679016,,
1753063234337,-0.09876082092523575,,
1753063234338,,-7.0371575355529785,-4.964975833892822
1753063234389,-0.5345055460929871,-8.06666374206543,-5.75985050201416
1753063234439,0.6051344871520996,-8.497620582580566,-5.869984149932861
1753063234490,-0.49140989780426025,-8.224681854248047,-7.426215171813965
1753063234536,0.3082534670829773,-9.378686904907227,
1753063234537,,,-7.89547872543335
1753063234584,0.4471171796321869,,
1753063234585,0.2172738015651703,-8.449736595153809,-8.867524147033691
1753063234636,0.3321954905986786,-7.1712327003479,-7.991246700286865
1753063234686,2.9706058502197266,-5.2271409034729,-5.9753289222717285
1753063234687,,,-7.7661919593811035
1753063234736,0.19812019169330597,-5.705981254577637,-8.963293075561523
1753063234785,1.4095861911773682,,
1753063234786,0.7344213724136353,-3.1920695304870605,-7.991246700286865
1753063234835,0.7679402232170105,,
1753063234836,2.295440912246704,-1.899200439453125,-5.448604583740234
1753063234886,2.74076247215271,,
1753063234887,2.3959972858428955,-1.104325532913208,-6.152499675750732
1753063234937,1.5292962789535522,,
1753063234938,0.011372458189725876,-1.5496470928192139,-6.885125637054443
1753063234985,0.10235211998224258,-3.1010897159576416,-10.864288330078125
1753063235040,1.6250643730163574,-2.2152352333068848,-7.48846435546875
1753063235086,-0.35733461380004883,,
1753063235087,-0.07003039866685867,-5.615001678466797,-14.187440872192383
1753063235137,0.41359832882881165,,
1753063235138,,-3.8768110275268555,-9.106945037841797
1753063235185,0.983418345451355,,
1753063235186,1.591545581817627,-3.642179250717163,-8.867524147033691
1753063235235,1.5292962789535522,,
1753063235236,0.8732850551605225,-3.661332845687866,-8.283339500427246
1753063235285,-0.03172317147254944,,
1753063235286,0.29388827085494995,-3.6278140544891357,-9.715071678161621
1753063235337,0.7679402232170105,-3.958214044570923,-9.178771018981934
1753063235387,0.9786299467086792,-3.6373908519744873,-9.446921348571777
1753063235436,1.4574702978134155,-3.493738889694214,
1753063235437,,,-8.747814178466797
1753063235487,1.5628151893615723,-3.2830491065979004,-8.671199798583984
1753063235488,,,-8.489240646362305
1753063235536,1.2563573122024536,-2.9239187240600586,-7.660846710205078
1753063235586,0.8206126093864441,,
1753063235587,0.8349778652191162,-3.575141668319702,-7.900267124176025
1753063235588,,,-8.077438354492188
1753063235635,0.36092591285705566,-4.149750232696533,
1753063235636,,,-7.239467620849609
1753063235686,0.619499683380127,,
1753063235687,,-4.772242546081543,-6.966528415679932
1753063235735,1.7016788721084595,,
1753063235736,,-6.16566801071167,-8.283339500427246
1753063235786,-0.2472013235092163,,
1753063235787,-0.21368250250816345,-6.4386067390441895,-7.277774810791016
1753063235835,-0.3621230125427246,,
1753063235836,-1.0324994325637817,-8.7083101272583,-9.964069366455078
1753063235886,-1.0468647480010986,,
1753063235887,-1.7220295667648315,-6.73069953918457,-7.36396598815918
1753063235938,-1.8082208633422852,-6.141726016998291,-8.661623001098633
1753063235987,-0.4866214990615845,,
1753063235988,-0.3429693877696991,-6.500856399536133,-7.105391979217529
1753063236036,0.030526071786880493,-6.898293495178223,-7.009624004364014
1753063236085,0.1215057373046875,-6.486490726470947,
1753063236086,,,-6.621763229370117
1753063236135,-0.6446388363838196,,
1753063236136,,-6.816890716552734,-7.431003570556641
1753063236187,-0.49619829654693604,,
1753063236188,-0.4578910768032074,-6.448183536529541,-7.019200801849365
1753063236236,-0.40521863102912903,-6.855197906494141,-7.201159954071045
1753063236288,-0.37169981002807617,-6.553528785705566,-7.359177589416504
1753063236337,-0.4291606545448303,-6.845621109008789,
1753063236338,,,-6.942586421966553
1753063236388,-0.4387374520301819,-6.721122741699219,
1753063236389,,,-6.952163219451904
1753063236438,-1.1426327228546143,-7.032369136810303,-7.502829551696777
1753063236487,-0.5871779918670654,,
1753063236488,,-6.323685169219971,-6.846818447113037
1753063236537,-1.2288240194320679,-6.223128795623779,-7.852383136749268
1753063236587,-0.639850378036499,,
1753063236588,,-6.1082072257995605,-7.335235595703125
1753063236635,-0.7882909178733826,,
1753063236636,-0.19931729137897491,-6.745064735412598,
1753063236637,,,-7.478887557983398
1753063236688,0.15981295704841614,-6.644508361816406,-6.588244438171387
1753063236736,-0.596754789352417,,
1753063236737,-0.4578910768032074,-6.654085159301758,-7.1436991691589355
1753063236787,-0.2998737692832947,-6.615777969360352,
1753063236788,,-6.452971935272217,
1753063236789,,,-7.1436991691589355
1753063236836,-0.922366201877594,-6.275801181793213,
1753063236837,,,-8.019977569580078
1753063236886,-1.0995371341705322,,
1753063236887,-1.3150153160095215,,
1753063236888,,-6.467337131500244,-7.794922351837158
1753063236941,-0.7212532758712769,-6.237493991851807,-7.5650787353515625
1753063236986,0.4710591733455658,-7.0802531242370605,-7.617751121520996
1753063237036,0.3034650683403015,-6.534375190734863,
1753063237037,,,-8.015189170837402
1753063237086,-0.2472013235092163,,
1753063237087,,-6.050746440887451,-7.550713539123535
1753063237136,-0.8505401611328125,-5.729923248291016,-7.70394229888916
1753063237188,-0.884058952331543,-5.868786811828613,-7.6081743240356445
1753063237235,-0.5776011347770691,-6.184821605682373,
1753063237236,,,-7.416638374328613
1753063237288,-0.5009866952896118,-6.141726016998291,-7.277774810791016
1753063237336,-0.6206967830657959,,
1753063237337,-0.9032126069068909,-6.002861976623535,-7.110180377960205
1753063237387,-1.0516531467437744,,
1753063237388,,-6.194398403167725,-8.110957145690918
1753063237437,-0.7978677153587341,,
1753063237438,-0.8122329115867615,-5.983708381652832,-6.913856029510498
1753063237489,-0.7835025191307068,,
1753063237490,,-6.227917194366455,-7.234679222106934
1753063237536,-1.4730325937271118,,
1753063237537,,-6.625354766845703,-8.225878715515137
1753063237587,-1.1857284307479858,,
1753063237588,,-6.979696273803711,-7.847594738006592
1753063237635,-1.6262614727020264,-6.496067523956299,
1753063237636,,-6.318896770477295,-8.240243911743164
1753063237687,-0.041299980133771896,,
1753063237688,0.8637082576751709,-6.208763599395752,-6.233902454376221
1753063237733,1.3186066150665283,,
1753063237736,0.375291109085083,-6.208763599395752,
1753063237737,,-6.950965881347656,-5.185242176055908
1753063237786,-1.3006501197814941,,
1753063237787,,-8.248623847961426,-8.082226753234863
1753063237835,-1.932719349861145,-8.06666374206543,-7.407061576843262
1753063237887,-0.9271546006202698,-7.209539890289307,-8.326435089111328
1753063237936,-0.8457517623901367,,
1753063237938,,-6.031592845916748,-7.244256019592285
1753063237986,-1.468244194984436,,
1753063237987,-0.32381579279899597,-5.184045314788818,-9.202713012695312
1753063238036,-0.3860650360584259,,
1753063238037,-1.4586673974990845,-5.648520469665527,-8.728660583496094
1753063238090,-1.5017629861831665,,
1753063238091,-0.8888474106788635,-5.131372928619385,-8.087015151977539
1753063238138,-1.4347254037857056,,
1753063238139,-2.65097975730896,-3.9390604496002197,
1753063238140,,,-8.125322341918945
1753063238189,-3.00053334236145,,
1753063238190,-2.646191358566284,-4.379593372344971,
1753063238191,,,-8.355165481567383
1753063238238,-2.4355015754699707,,
1753063238239,,-4.3843817710876465,-9.810839653015137
1753063238287,-1.5304933786392212,-4.13059663772583,-8.934561729431152
1753063238288,,,-8.436568260192871
1753063238337,-2.2008697986602783,-5.586271286010742,-10.52910041809082
1753063238387,-1.3437457084655762,,
1753063238388,-1.6262614727020264,-3.8337154388427734,-8.723872184753418
1753063238436,-1.7507599592208862,,
1753063238437,-1.7651251554489136,-5.1361613273620605,-9.317634582519531
1753063238489,-1.511339783668518,,
1753063238490,-1.611896276473999,-3.3644518852233887,-8.982446670532227
1753063238491,,,-10.2561616897583
1753063238538,-1.9039889574050903,,
1753063238539,-1.104325532913208,-2.6126725673675537,
1753063238540,,,-8.632892608642578
1753063238587,-0.6111199855804443,,
1753063238588,,-1.3724761009216309,-8.666411399841309
1753063238636,2.803011655807495,-1.2431892156600952,
1753063238637,,-0.40043023228645325,-9.279327392578125
1753063238688,-0.35254621505737305,-1.2527660131454468,-9.245808601379395
1753063238738,-2.4642322063446045,,
1753063238739,-1.913565754890442,-1.2527660131454468,-9.049484252929688
1753063238787,-1.568800687789917,-0.6063315868377686,
1753063238788,,,-9.279327392578125
1753063238839,-1.2527660131454468,-0.778714120388031,
1753063238840,,,-8.532336235046387
1753063238888,-2.0667946338653564,,
1753063238889,-1.5304933786392212,-0.8313865661621094,-9.255385398864746
1753063238937,-1.9949685335159302,,
1753063238938,-2.320580005645752,-1.5017629861831665,-11.027094841003418
1753063238987,-1.5304933786392212,-1.8656816482543945,
1753063238988,,-2.229600429534912,-9.011177062988281
1753063239037,-1.3341689109802246,-2.2152352333068848,-9.791686058044434
1753063239038,,,-9.600150108337402
1753063239088,-2.0715830326080322,,
1753063239089,,-3.0101101398468018,-9.700706481933594
1753063239137,-0.7068880796432495,-3.201646327972412,
1753063239138,,,-10.308834075927734
1753063239191,-0.02214636653661728,-2.6414029598236084,-10.141240119934082
1753063239236,-0.3669114112854004,-1.9901801347732544,-9.873088836669922
1753063239288,-0.3621230125427246,,
1753063239289,,-1.7172411680221558,-8.738237380981445
1753063239336,-0.4626794755458832,,
1753063239337,-1.204882025718689,0.18375498056411743,-10.414178848266602
1753063239338,,,-9.537900924682617
1753063239387,-1.8608932495117188,,
1753063239388,,-0.6733692288398743,-8.436568260192871
1753063239436,-0.42437225580215454,-2.9909565448760986,
1753063239437,,,-11.616067886352539
1753063239487,-2.852092742919922,,
1753063239488,,-2.8377275466918945,-8.42699146270752
1753063239536,-0.055665191262960434,,
1753063239537,,-2.7467479705810547,-10.04068374633789
1753063239588,-3.1250317096710205,-1.8513164520263672,-10.849923133850098
1753063239636,-0.17058686912059784,-1.6262614727020264,-9.743802070617676
1753063239687,-1.7507599592208862,,
1753063239688,,-2.0907366275787354,-9.801262855529785
1753063239735,-1.7603367567062378,,
1753063239736,-1.8800468444824219,-2.2008697986602783,-9.94970417022705
1753063239787,-1.9614497423171997,,
1753063239788,-1.7794904708862305,-2.095525026321411,-9.245808601379395
1753063239836,-1.8034324645996094,,
1753063239837,,-1.913565754890442,-9.317634582519531
1753063239887,-1.7938556671142578,,
1753063239888,,-2.0045454502105713,-9.691129684448242
1753063239937,-1.468244194984436,-1.9375077486038208,-8.996811866760254
1753063239987,-1.4107834100723267,-2.124255418777466,-9.379883766174316
1753063240037,-0.9175778031349182,-2.1960813999176025,-10.06462574005127
1753063240038,,,-9.695918083190918
1753063240087,-1.0708067417144775,,
1753063240088,-1.2431892156600952,-1.2336124181747437,-8.838793754577637
1753063240137,-1.9375077486038208,,
1753063240138,-1.9470845460891724,-2.167351007461548,-10.414178848266602
1753063240190,-1.4969745874404907,-2.6653449535369873,-9.92097282409668
1753063240235,-1.8513164520263672,-1.9087773561477661,
1753063240236,,,-8.7669677734375
1753063240287,-2.210446834564209,,
1753063240288,-2.914341926574707,-1.6262614727020264,-9.049484252929688
1753063240324,-2.8329391479492188,-0.6494272351264954,-7.574655532836914
1753063240327,-1.0708067417144775,-0.9798270463943481,-6.679224014282227
1753063240387,-0.2759317457675934,,
1753063240388,,-1.3724761009216309,-8.225878715515137
1753063240437,-1.5735890865325928,-3.096301317214966,-10.538677215576172
1753063240489,-2.4355015754699707,-3.2543187141418457,-9.786897659301758
1753063240538,-1.1234791278839111,,
1753063240539,,-2.785055160522461,-8.316858291625977
1753063240589,-1.6980875730514526,-3.0101101398468018,-8.422203063964844
1753063240636,-1.4299370050430298,,
1753063240637,,-0.7930793166160583,-8.130110740661621
1753063240689,-2.5073277950286865,-3.4841620922088623,
1753063240690,,,-10.778097152709961
1753063240735,-2.473809003829956,,
1753063240736,-1.975814938545227,,
1753063240737,,-1.9806033372879028,-9.892242431640625
1753063240788,-1.7172411680221558,-2.0428526401519775,-9.700706481933594
1753063240840,-2.009333848953247,-2.8616695404052734,-10.687117576599121
1753063240889,-1.5352818965911865,,
1753063240890,-1.5496470928192139,-3.0148985385894775,-9.011177062988281
1753063240941,-1.5831658840179443,-2.296638011932373,-9.739013671875
1753063240942,,,-9.619303703308105
1753063240988,-2.4402899742126465,-2.866457939147949,
1753063240989,,-2.9095535278320312,-9.61451530456543
1753063241038,-1.4012064933776855,-2.076371431350708,
1753063241039,,,-8.158841133117676
1753063241089,-2.3110032081604004,-2.828150749206543,-9.806051254272461
1753063241138,-1.8082208633422852,,
1753063241139,-1.731606364250183,-2.272696018218994,-8.12053394317627
1753063241189,-1.6741455793380737,,
1753063241190,-2.1098902225494385,-2.4881742000579834,-9.686341285705566
1753063241240,-1.7076643705368042,-3.3069911003112793,-9.64803409576416
1753063241288,-1.4299370050430298,-3.354875087738037,-9.576208114624023
1753063241337,-2.1338322162628174,-2.521692991256714,
1753063241338,,,-8.55148983001709
1753063241390,-1.0133458375930786,,
1753063241391,,-2.1577742099761963,-8.436568260192871
1753063241438,-2.167351007461548,,
1753063241439,-1.5304933786392212,-2.1912930011749268,-8.982446670532227
1753063241491,-2.0236990451812744,-2.2870612144470215,-9.988011360168457
1753063241492,,,-10.821192741394043
1753063241538,-1.856104850769043,,
1753063241539,-1.6980875730514526,-2.852092742919922,-9.542689323425293
1753063241590,-1.2575544118881226,,
1753063241591,-0.8505401611328125,-3.1058781147003174,-8.450933456420898
1753063241638,-2.785055160522461,-3.3069911003112793,
1753063241639,,,-10.327987670898438
1753063241692,-0.960673451423645,-2.6557681560516357,-7.823652744293213
1753063241738,-1.7172411680221558,,
1753063241739,-1.8082208633422852,-3.354875087738037,-9.537900924682617
1753063241790,-2.1338322162628174,,
1753063241791,,-3.1202433109283447,-9.106945037841797
1753063241838,-1.7842788696289062,-2.7946319580078125,-8.867524147033691
1753063241888,-1.8417396545410156,,
1753063241889,,-2.65097975730896,-8.85794734954834
1753063241938,-1.813009262084961,-2.8999767303466797,-9.226655006408691
1753063241988,-2.100313425064087,,
1753063241989,-1.9231425523757935,-2.866457939147949,-9.585784912109375
1753063242038,-1.9614497423171997,-2.8856115341186523,-9.700706481933594
1753063242087,-1.956661343574524,,
1753063242088,-1.8800468444824219,-3.0819361209869385,-9.327211380004883
1753063242138,-2.0620062351226807,,
1753063242139,,-2.162562608718872,-8.9249849319458
1753063242188,-1.5735890865325928,-2.7275943756103516,-8.886677742004395
1753063242239,-1.8417396545410156,,
1753063242241,,-2.9287071228027344,-9.030330657958984
1753063242286,-1.5065513849258423,-3.2112231254577637,
1753063242287,,-3.0196869373321533,-9.106945037841797
1753063242340,-1.6597803831100464,,
1753063242341,,-3.536834478378296,-9.241020202636719
1753063242388,-0.9175778031349182,,
1753063242389,,-3.5033156871795654,-8.264185905456543
1753063242437,-1.4873977899551392,,
1753063242438,-1.5831658840179443,-3.838503837585449,-9.21707820892334
1753063242439,,,-9.049484252929688
1753063242489,-1.669357180595398,-4.216787815093994,-9.169194221496582
1753063242537,-1.5831658840179443,-3.6278140544891357,
1753063242538,,,-9.049484252929688
1753063242588,-1.5257049798965454,,
1753063242589,,-4.101866245269775,-9.561842918395996
1753063242638,-1.5257049798965454,-3.752312660217285,-9.30805778503418
1753063242689,-1.568800687789917,-3.6373908519744873,-8.867524147033691
1753063242738,-1.7842788696289062,,
1753063242739,-1.6741455793380737,-4.001309394836426,-9.5809965133667
1753063242787,-1.2527660131454468,-3.230376720428467,-8.273762702941895
1753063242836,-1.669357180595398,,
1753063242837,-1.8944120407104492,-3.4171242713928223,-8.944138526916504
1753063242888,-1.6406266689300537,-3.90554141998291,-8.958504676818848
1753063242889,,,-8.326435089111328
1753063242938,-1.4538789987564087,,
1753063242939,-1.8177976608276367,-3.5272576808929443,-8.795698165893555
1753063242988,-1.7172411680221558,-3.8145618438720703,
1753063242989,,-3.5703532695770264,-9.2841157913208
1753063243037,-1.3341689109802246,,
1753063243038,-1.6262614727020264,-3.666121244430542,-8.867524147033691
1753063243091,-1.5879542827606201,,
1753063243092,-1.3724761009216309,-3.4123358726501465,-8.58500862121582
1753063243138,-1.1665748357772827,-4.34607458114624,
1753063243139,,,-9.628880500793457
1753063243189,-1.7076643705368042,-3.843292236328125,-9.006388664245605
1753063243190,,,-9.394248962402344
1753063243238,-1.1378443241119385,-3.397970676422119,
1753063243239,,,-8.446145057678223
1753063243287,-1.956661343574524,,
1753063243288,-1.4395138025283813,-3.8337154388427734,-9.015965461730957
1753063243337,-1.5544354915618896,,
1753063243338,-1.8608932495117188,-3.5033156871795654,-8.489240646362305
1753063243391,-1.688510775566101,,
1753063243392,-1.3581109046936035,-3.752312660217285,-9.030330657958984
1753063243438,-1.6502034664154053,-3.8815994262695312,-9.351153373718262
1753063243491,-1.5400702953338623,,
1753063243492,-1.4107834100723267,-3.7618894577026367,-9.355941772460938
1753063243538,-1.5592238903045654,-4.039616584777832,
1753063243539,,-4.020462989807129,-9.403825759887695
1753063243589,-1.4969745874404907,-3.929483652114868,
1753063243590,,,-9.011177062988281
1753063243638,-1.2527660131454468,-3.62302565574646,-8.604162216186523
1753063243691,-1.6214730739593506,-3.378817081451416,
1753063243692,,,-8.326435089111328
1753063243740,-1.1186907291412354,,
1753063243741,,-4.053982257843018,-8.723872184753418
1753063243788,-1.5592238903045654,-3.819350242614746,-9.020753860473633
1753063243838,-1.204882025718689,-3.7618894577026367,-8.987235069274902
1753063243889,-1.688510775566101,-3.6996402740478516,-8.9249849319458
1753063243938,-0.9654618501663208,-3.7187938690185547,-8.379107475280762
1753063243988,-1.348534107208252,-3.9246952533721924,-8.996811866760254
1753063243989,,,-9.09257984161377
1753063244041,-1.3006501197814941,,
1753063244042,-0.9032126069068909,-3.8289270401000977,-8.901042938232422
1753063244087,-1.7268179655075073,,
1753063244088,-1.8273744583129883,-3.9486372470855713,-9.063849449157715
1753063244149,-1.3293805122375488,,
1753063244153,-0.8744821548461914,,
1753063244154,-1.1330559253692627,-3.7714662551879883,-8.67598819732666
1753063244186,-1.8848352432250977,,
1753063244187,,-3.824138641357422,-9.279327392578125
1753063244238,-1.2575544118881226,-3.134608507156372,
1753063244239,,,-7.972093105316162
1753063244288,-1.8848352432250977,-4.0779242515563965,-9.801262855529785
1753063244339,-1.5640122890472412,-3.709217071533203,
1753063244340,,-3.536834478378296,-8.723872184753418
1753063244388,-1.544858694076538,-3.5224692821502686,-8.987235069274902
1753063244439,-1.3437457084655762,-4.441842555999756,-9.94970417022705
1753063244486,-1.3868412971496582,,
1753063244489,-1.2814964056015015,,
1753063244490,,,-8.130110740661621
1753063244538,-1.5544354915618896,,
1753063244539,-1.913565754890442,-3.6134488582611084,-9.576208114624023
1753063244587,-1.128267526626587,-3.5847184658050537,-8.412626266479492
1753063244638,-1.0660183429718018,,
1753063244639,-1.4299370050430298,-4.101866245269775,-9.059061050415039
1753063244687,-1.6789339780807495,-3.1202433109283447,-8.781332969665527
1753063244738,-1.425148606300354,-3.800196647644043,-8.805274963378906
1753063244739,,,-8.288127899169922
1753063244787,-1.7411831617355347,,
1753063244788,-2.2152352333068848,-4.259883403778076,-9.437344551086426
1753063244841,-1.7747019529342651,,
1753063244842,-1.2767080068588257,-3.6804866790771484,-9.202713012695312
1753063244887,-0.9175778031349182,-4.192845821380615,-9.169194221496582
1753063244938,-1.999756932258606,,
1753063244939,,-4.245518207550049,-9.30805778503418
1753063244985,-0.6159083843231201,,
1753063244986,-1.2192472219467163,-4.034828186035156,-8.64246940612793
1753063245038,-1.7411831617355347,-3.6565444469451904,-9.063849449157715
1753063245087,-1.27191960811615,-3.5176808834075928,-8.201936721801758
1753063245138,-1.128267526626587,,
1753063245139,-1.3964180946350098,-4.178480625152588,-8.623315811157227
1753063245140,,,-9.236231803894043
1753063245187,-1.449090600013733,,
1753063245188,-1.104325532913208,-4.068347454071045,-8.901042938232422
1753063245238,-1.30543851852417,,
1753063245239,,-3.709217071533203,-9.09257984161377
1753063245287,-1.3533225059509277,-3.7044286727905273,
1753063245288,,,-9.06863784790039
1753063245338,-0.960673451423645,-3.891176223754883,
1753063245339,,-4.039616584777832,-9.25059700012207
1753063245386,-1.3868412971496582,,
1753063245387,-1.2958617210388184,-4.101866245269775,-9.140463829040527
1753063245438,-1.18094003200531,,
1753063245439,,-4.073135852813721,-8.714295387268066
1753063245487,-1.5257049798965454,,
1753063245488,,-3.8959646224975586,-8.695141792297363
1753063245537,-1.2767080068588257,,
1753063245538,,-4.087501049041748,-8.790909767150879
1753063245587,-0.9319429993629456,,
1753063245588,-0.9846154451370239,-4.398746967315674,-8.89146614074707
1753063245637,-1.1139023303985596,-4.518456935882568,-8.872312545776367
1753063245691,-1.1713632345199585,-4.370016574859619,-9.011177062988281
1753063245738,-1.1139023303985596,,
1753063245739,,-4.197634220123291,-8.996811866760254
1753063245787,-1.7986440658569336,,
1753063245788,,-3.5942952632904053,-9.207501411437988
1753063245838,-1.2958617210388184,-3.287837505340576,
1753063245839,,,-8.465298652648926
1753063245889,-1.468244194984436,-3.4410665035247803,-8.743025779724121
1753063245939,-1.6837223768234253,-3.2830491065979004,-8.910619735717773
1753063245940,,,-9.130887031555176
1753063245986,-2.02848744392395,,
1753063245987,,-2.8808231353759766,-9.652822494506836
1753063246039,-2.516904592514038,,
1753063246040,-2.5695769786834717,-2.363675594329834,-10.069414138793945
1753063246088,-1.8034324645996094,,
1753063246089,-1.3820528984069824,-2.258330821990967,-8.738237380981445
1753063246139,-1.568800687789917,-3.1968579292297363,
1753063246140,,-3.6517560482025146,-8.628104209899902
1753063246187,-1.2767080068588257,-3.97257924079895,-8.982446670532227
1753063246239,-1.3006501197814941,-3.9438488483428955,-9.18355941772461
1753063246288,-1.4012064933776855,-4.149750232696533,
1753063246289,,,-9.039907455444336
1753063246339,-1.3628993034362793,-3.9821560382843018,-8.929773330688477
1753063246390,-1.5400702953338623,,
1753063246391,-1.3198037147521973,-3.618237257003784,-8.565855026245117
1753063246392,,,-8.6089506149292
1753063246439,-1.1761516332626343,-3.929483652114868,-8.685564994812012
1753063246491,-1.592742681503296,,
1753063246492,-1.3581109046936035,-3.709217071533203,-9.073426246643066
1753063246538,-1.4873977899551392,,
1753063246539,-1.688510775566101,,
1753063246541,,-3.7187938690185547,-9.164405822753906
1753063246587,-1.3533225059509277,,
1753063246588,-1.2527660131454468,-3.7906198501586914,-8.867524147033691
1753063246640,-1.3198037147521973,-3.6756980419158936,-8.910619735717773
1753063246687,-1.4059948921203613,,
1753063246688,-1.247977614402771,-3.819350242614746,-8.819640159606934
1753063246739,-1.3437457084655762,,
1753063246740,-1.4778209924697876,-3.575141668319702,-8.412626266479492
1753063246791,-1.4012064933776855,-3.843292236328125,-8.9249849319458
1753063246842,-1.3964180946350098,-3.8815994262695312,-8.834005355834961
1753063246890,-1.6166846752166748,,
1753063246891,-1.71245276927948,-4.058770656585693,-9.06863784790039
1753063246939,-1.5544354915618896,-3.9869444370269775,
1753063246940,,,-9.00160026550293
1753063246986,-1.568800687789917,,
1753063246987,-1.5544354915618896,-3.9390604496002197,-9.083003044128418
1753063247039,-1.3150153160095215,-3.8720226287841797,-8.776544570922852
1753063247090,-1.6023194789886475,-3.867234230041504,-8.9680814743042
1753063247091,,,-8.910619735717773
1753063247139,-1.3341689109802246,,
1753063247140,-1.3772644996643066,-3.9007530212402344,-8.987235069274902
1753063247187,-1.4730325937271118,,
1753063247188,,-3.910329818725586,-8.877100944519043
1753063247239,-1.4059948921203613,,
1753063247240,-1.4969745874404907,-4.044404983520508,-8.948927879333496
1753063247288,-1.4155718088150024,-3.9390604496002197,
1753063247289,,-3.929483652114868,-9.030330657958984
1753063247339,-1.3724761009216309,-3.838503837585449,
1753063247340,,-3.800196647644043,-8.637681007385254
1753063247386,-1.3581109046936035,,
1753063247387,-1.2384008169174194,-3.5847184658050537,-8.546701431274414
1753063247437,-1.2192472219467163,,
1753063247438,,-4.173692226409912,-9.00160026550293
1753063247486,-1.4059948921203613,-4.475361347198486,-9.135675430297852
1753063247537,-1.2144588232040405,,
1753063247538,,-4.049193859100342,-8.958504676818848
1753063247587,-1.4586673974990845,,
1753063247588,,-3.9151182174682617,-8.848370552062988
1753063247639,-0.9415197968482971,,
1753063247640,,-4.063559055328369,-8.89146614074707
1753063247687,-1.3341689109802246,,
1753063247688,-1.2144588232040405,-3.886387825012207,-8.795698165893555
1753063247739,-0.9463081955909729,-3.757101058959961,-8.331223487854004
1753063247740,,,-8.21151351928711
1753063247787,-0.9798270463943481,-4.0970778465271,-8.747814178466797
1753063247843,-1.7459715604782104,-4.43705415725708,-9.389460563659668
1753063247890,-1.0229226350784302,,
1753063247891,-1.1713632345199585,-3.862445831298828,-8.862735748291016
1753063247939,-1.4347254037857056,-3.910329818725586,
1753063247940,,-4.015674591064453,-9.231443405151367
1753063247987,-1.1139023303985596,-4.264671802520752,-9.145252227783203
1753063248039,-1.104325532913208,,
1753063248040,-1.204882025718689,-4.245518207550049,-9.106945037841797
1753063248088,-1.2814964056015015,,
1753063248089,,-3.977367639541626,-9.020753860473633
1753063248139,-1.247977614402771,-3.838503837585449,-8.666411399841309
1753063248140,,,-8.671199798583984
1753063248188,-1.367687702178955,-3.7714662551879883,-8.652046203613281
1753063248241,-1.468244194984436,-3.7714662551879883,-8.843582153320312
1753063248242,,,-8.671199798583984
1753063248286,-1.1665748357772827,,
1753063248287,-1.2144588232040405,-3.7475242614746094,
1753063248288,,-3.7235822677612305,-8.939350128173828
1753063248338,-1.391629695892334,-3.819350242614746,-9.073426246643066
1753063248385,-1.3868412971496582,,
1753063248386,-1.3293805122375488,-3.62302565574646,-9.106945037841797
1753063248437,-1.2288240194320679,,
1753063248438,,-3.6517560482025146,-8.89146614074707
1753063248488,-1.568800687789917,,
1753063248489,,-3.8720226287841797,-9.245808601379395
1753063248539,-1.8082208633422852,-3.421912670135498,
1753063248540,,,-9.437344551086426
1753063248588,-1.731606364250183,-3.0196869373321533,
1753063248589,,,-9.221866607666016
1753063248638,-1.7028759717941284,,
1753063248639,,-2.847304344177246,-8.752602577209473
1753063248688,-1.7507599592208862,-2.8999767303466797,-9.226655006408691
1753063248738,-1.7076643705368042,-2.7946319580078125,
1753063248739,,,-8.920196533203125
1753063248786,-1.5304933786392212,,
1753063248787,-1.0708067417144775,-2.8616695404052734,
1753063248788,,-2.689286947250366,-9.121310234069824
1753063248838,-1.0851719379425049,,
1753063248839,,-2.521692991256714,-9.130887031555176
1753063248887,-1.8848352432250977,,
1753063248888,,-2.7323827743530273,-8.752602577209473
1753063248938,-1.6310498714447021,,
1753063248939,-1.7651251554489136,-3.421912670135498,-9.394248962402344
1753063248987,-2.0620062351226807,-3.977367639541626,-9.566631317138672
1753063249040,-1.3628993034362793,,
1753063249041,,-3.378817081451416,-9.150040626525879
1753063249087,-1.6549919843673706,,
1753063249088,,-2.722805976867676,-9.054272651672363
1753063249137,-1.4730325937271118,,
1753063249138,-1.7459715604782104,-3.0627825260162354,-9.652822494506836
1753063249187,-1.4826093912124634,-3.2591071128845215,
1753063249188,,,-9.676764488220215
1753063249238,-1.4107834100723267,,
1753063249239,,-2.7036523818969727,-8.97765827178955
1753063249287,-1.6789339780807495,-2.4450783729553223,
1753063249288,,-2.890399932861328,-8.992023468017578
1753063249338,-2.473809003829956,,
1753063249339,,-3.24953031539917,-10.069414138793945
1753063249387,-1.7699135541915894,-3.5511996746063232,-10.318410873413086
1753063249437,-1.731606364250183,,
1753063249438,-1.7842788696289062,-3.8097734451293945,-11.074978828430176
1753063249489,-1.1186907291412354,-3.0196869373321533,
1753063249490,,-3.1298201084136963,-9.997588157653809
1753063249539,-1.367687702178955,-2.943072557449341,-10.327987670898438
1753063249587,-2.0907366275787354,,
1753063249591,,-1.8082208633422852,
1753063249592,,,-9.150040626525879
1753063249601,-2.1098902225494385,-1.2767080068588257,-8.905831336975098
1753063249650,-1.8704700469970703,-0.7499836683273315,-8.843582153320312
1753063249701,-2.5983073711395264,-0.01735796220600605,-8.958504676818848
1753063249702,,,-8.594585418701172
1753063249751,-1.975814938545227,-0.6015431880950928,-8.790909767150879
1753063249801,-2.0715830326080322,-1.544858694076538,-9.724648475646973
1753063249850,-1.688510775566101,,
1753063249851,-1.6549919843673706,-2.4211363792419434,-9.983222961425781
1753063249902,-1.5975310802459717,-3.2112231254577637,
1753063249903,,-3.6278140544891357,-10.193912506103516
1753063249952,-2.272696018218994,,
1753063249953,-1.6502034664154053,-4.2550950050354,-10.28010368347168
1753063250001,-1.1569979190826416,,
1753063250002,-1.2336124181747437,-3.5464112758636475,-8.656834602355957
1753063250055,-1.592742681503296,-2.4690206050872803,
1753063250056,,-1.999756932258606,-8.273762702941895
1753063250100,-1.6406266689300537,,
1753063250101,-1.6549919843673706,-1.6645687818527222,-9.03511905670166
1753063250161,-1.635838270187378,-0.9127894043922424,-8.192359924316406
1753063250199,-1.2575544118881226,,
1753063250200,-1.511339783668518,-1.3006501197814941,-8.561066627502441
1753063250251,-1.9183541536331177,,
1753063250253,-2.081159830093384,-2.210446834564209,-10.169970512390137
1753063250254,,,-10.174758911132812
1753063250301,-1.6932991743087769,-2.6557681560516357,-10.361506462097168
1753063250302,,,-10.543465614318848
1753063250351,-1.8896236419677734,-2.7946319580078125,
1753063250352,,,-10.849923133850098
1753063250400,-1.9183541536331177,,
1753063250401,-1.5400702953338623,-2.957437753677368,-10.797250747680664
1753063250452,-1.5257049798965454,-2.7898435592651367,-9.786897659301758
1753063250453,,,-9.408614158630371
1753063250500,-1.544858694076538,,
1753063250501,-1.6262614727020264,-2.3780407905578613,-8.929773330688477
1753063250552,-1.3341689109802246,-2.492962598800659,-8.747814178466797
1753063250553,,,-8.474875450134277
1753063250601,-1.30543851852417,,
1753063250602,-1.544858694076538,-2.497750997543335,-8.714295387268066
1753063250653,-1.7699135541915894,-2.5312697887420654,-9.140463829040527
1753063250704,-1.3389573097229004,,
1753063250705,-1.6789339780807495,-2.3780407905578613,-8.872312545776367
1753063250754,-1.6502034664154053,-2.5456349849700928,-9.446921348571777
1753063250801,-1.6741455793380737,-2.1481974124908447,-9.403825759887695
1753063250802,,,-9.94970417022705
1753063250853,-1.6406266689300537,,
1753063250854,,-2.56000018119812,
1753063250855,,-2.536058187484741,-10.418967247009277
1753063250901,-1.2623428106307983,-2.1769278049468994,
1753063250902,,,-9.724648475646973
1753063250956,-1.7076643705368042,-2.449866771697998,-10.059837341308594
1753063251003,-1.8082208633422852,,
1753063251004,-1.6837223768234253,-2.4211363792419434,-9.868300437927246
1753063251053,-1.3724761009216309,-2.0428526401519775,-8.455721855163574
1753063251100,-1.8082208633422852,,
1753063251101,,-2.3540987968444824,-9.2841157913208
1753063251153,-1.5161281824111938,-2.430713176727295,-8.853158950805664
1753063251201,-1.9518729448318481,,
1753063251202,,-3.0101101398468018,-9.604938507080078
1753063251255,-1.5640122890472412,-2.536058187484741,
1753063251256,,,-8.972869873046875
1753063251300,-1.7172411680221558,,
1753063251301,-2.02848744392395,-2.8808231353759766,-9.303269386291504
1753063251352,-1.7507599592208862,,
1753063251353,-1.3964180946350098,-3.158550500869751,-9.27453899383545
1753063251401,-1.30543851852417,-2.095525026321411,
1753063251402,,-2.2822728157043457,-8.398261070251465
1753063251452,-1.7076643705368042,,
1753063251454,-2.1912930011749268,-2.7994203567504883,-9.710283279418945
1753063251500,-1.611896276473999,,
1753063251501,,-3.0101101398468018,-9.231443405151367
1753063251551,-1.6166846752166748,,
1753063251552,-1.731606364250183,-3.053205728530884,-10.059837341308594
1753063251600,-1.8513164520263672,-2.9478609561920166,-9.327211380004883
1753063251671,-1.2671312093734741,-2.80899715423584,-9.236231803894043
1753063251675,-2.301426410675049,,
1753063251676,,-2.6366145610809326,-9.944915771484375
1753063251726,-1.18094003200531,,
1753063251727,-0.9989806413650513,-2.516904592514038,
1753063251728,,,-9.044695854187012
1753063251773,-1.8656816482543945,,
1753063251774,-2.3493103981018066,-2.607884168624878,-9.82999324798584
1753063251823,-1.755548357963562,-2.6174609661102295,-8.575431823730469
1753063251875,-1.348534107208252,,
1753063251876,,-2.536058187484741,-9.154829025268555
1753063251923,-1.7172411680221558,,
1753063251924,-1.635838270187378,-3.0340521335601807,-9.087791442871094
1753063251975,-1.7268179655075073,-3.139396905899048,
1753063251976,,-3.359663486480713,-8.814851760864258
1753063252023,-1.9518729448318481,,
1753063252024,,-3.287837505340576,-9.121310234069824
1753063252075,-1.6837223768234253,-3.110666513442993,-8.944138526916504
1753063252076,,,-9.25059700012207
1753063252124,-2.301426410675049,-2.8425159454345703,
1753063252125,,-2.8185739517211914,-9.260173797607422
1753063252338,-2.497750997543335,-2.6126725673675537,-9.446921348571777
1753063252344,-1.789067268371582,-3.2830491065979004,-9.322422981262207
1753063252395,-2.27748441696167,,
1753063252396,-1.9662381410598755,-3.488950490951538,-9.686341285705566
1753063252447,-1.4778209924697876,,
1753063252448,,-2.866457939147949,-9.044695854187012
1753063252497,-1.7938556671142578,,
1753063252498,,-3.1633388996124268,-9.370306968688965
1753063252546,-1.6214730739593506,-2.8377275466918945,-9.260173797607422
1753063252547,,,-9.34157657623291
1753063252597,-1.9614497423171997,,
1753063252598,,-3.1633388996124268,-9.351153373718262
1753063252646,-1.5209165811538696,-3.153762102127075,-8.953716278076172
1753063252696,-1.3293805122375488,,
1753063252697,-1.544858694076538,-3.225588321685791,-8.838793754577637
1753063252767,-1.511339783668518,,
1753063252768,,-3.072359323501587,-8.805274963378906
1753063252771,-1.4730325937271118,-3.1298201084136963,-8.762179374694824
1753063252772,,,-9.15961742401123
1753063252819,-1.6789339780807495,,
1753063252820,-1.8800468444824219,-3.579930067062378,-9.37509536743164
1753063252869,-1.7938556671142578,,
1753063252870,-1.4059948921203613,-3.5033156871795654,-9.102156639099121
1753063252919,-1.5879542827606201,,
1753063252920,-1.7699135541915894,-3.1920695304870605,-9.111733436584473
1753063252972,-1.6214730739593506,-3.1250317096710205,-9.00160026550293
1753063253019,-1.5065513849258423,,
1753063253020,-1.6980875730514526,-3.5224692821502686,-9.202713012695312
1753063253922,-1.7076643705368042,,
1753063253923,-1.4730325937271118,-3.953425645828247,-9.552266120910645
1753063253931,-1.8034324645996094,,
1753063253932,,-4.006097793579102,-9.255385398864746
1753063253983,-1.7028759717941284,-3.800196647644043,-8.637681007385254
1753063253984,,,-8.604162216186523
1753063254035,-1.3102269172668457,-3.800196647644043,-8.992023468017578
1753063254036,,,-9.044695854187012
1753063254083,-1.4634557962417603,,
1753063254084,,-4.135385036468506,-9.193136215209961
1753063255659,-1.6549919843673706,-3.9007530212402344,-9.150040626525879
1753063255711,-1.1522095203399658,-4.393958568572998,-8.723872184753418
1753063255761,-1.027711033821106,-4.1210198402404785,-8.589797019958496
1753063255811,-1.4778209924697876,-3.953425645828247,-8.776544570922852
1753063255860,-1.3293805122375488,-4.049193859100342,-8.771756172180176
1753063255911,-1.0755951404571533,,
1753063255912,,-4.422688961029053,-8.58500862121582
1753063255960,-1.4443022012710571,,
1753063255961,,-4.709993362426758,-9.255385398864746
1753063256602,-1.18094003200531,-4.3173441886901855,-8.82442855834961
1753063256609,-1.492186188697815,-4.451419353485107,-9.241020202636719
1753063256661,-1.2288240194320679,,
1753063256662,-1.14742112159729,-4.0300397872924805,-8.455721855163574
1753063256712,-1.2527660131454468,,
1753063256713,-1.2192472219467163,-4.135385036468506,-8.671199798583984
1753063256760,-1.18094003200531,,
1753063256761,-1.2144588232040405,-4.8488569259643555,-9.245808601379395
1753063256812,-1.4299370050430298,-4.3412861824035645,-9.102156639099121
1753063256861,-1.27191960811615,-3.6565444469451904,-8.441356658935547
1753063256912,-1.0995371341705322,-4.580706596374512,
1753063256913,,-4.566341400146484,-8.89146614074707
1753063256961,-1.4395138025283813,,
1753063256962,,-3.7235822677612305,-8.455721855163574
1753063257011,-1.2144588232040405,,
1753063257012,-1.0229226350784302,-3.4985272884368896,-8.168417930603027
1753063257060,-1.7028759717941284,-4.575918197631836,-9.403825759887695
1753063257111,-1.449090600013733,-3.977367639541626,
1753063257112,,-3.9630024433135986,-8.795698165893555
1753063257161,-1.1665748357772827,,
1753063257162,-1.5735890865325928,-4.101866245269775,-9.025542259216309
1753063257212,-1.6597803831100464,-4.465784549713135,
1753063257213,,,-9.150040626525879
1753063257262,-1.027711033821106,,
1753063257263,-1.2384008169174194,-4.2311530113220215,-8.49402904510498
1753063258326,-1.2814964056015015,-4.101866245269775,
1753063258327,,,-8.652046203613281
1753063258331,-1.8896236419677734,-0.9702502489089966,-7.330447196960449
1753063258384,-1.3820528984069824,-0.2950853705406189,
1753063258385,,-0.314238965511322,-7.071873188018799
1753063258432,-1.8225860595703125,,
1753063258433,-2.3924059867858887,-1.1905168294906616,-8.259397506713867
1753063258484,-1.7938556671142578,-4.087501049041748,-10.308834075927734
1753063258485,,,-9.782109260559082
1753063258533,-1.247977614402771,-5.054758548736572,-9.193136215209961
1753063258584,-1.0420763492584229,,
1753063258585,-0.8505401611328125,-8.30129623413086,-12.003929138183594
1753063258633,-0.1322796493768692,-8.234258651733398,
1753063258634,,,-9.988011360168457
1753063258696,-0.6877344250679016,,
1753063258697,-1.2862848043441772,-6.103418827056885,-8.350377082824707
1753063258746,-0.8936358094215393,,
1753063258747,,-2.4211363792419434,-5.142146587371826
1753063258794,-0.7499836683273315,-0.5871779918670654,-3.935469150543213
1753063258795,,,-3.973776340484619
1753063258845,-0.67815762758255,-0.6302735805511475,-4.2993879318237305
1753063258895,0.9546879529953003,-1.3150153160095215,-6.248267650604248
1753063258945,-5.1361613273620605,-1.3150153160095215,-14.25926685333252
1753063262107,-2.3732523918151855,,
1753063262108,0.04489128291606903,-4.719570159912109,-9.312846183776855
1753063262109,,,-12.616844177246094
1753063262113,-1.2288240194320679,,
1753063262114,,-3.752312660217285,-8.422203063964844
1753063262166,-1.7411831617355347,,
1753063262167,-1.6980875730514526,-3.6565444469451904,
1753063262170,,-3.9917328357696533,
1753063262171,,,-8.982446670532227
1753063262215,-0.9750386476516724,-4.3412861824035645,-8.489240646362305
1753063262267,-0.8074445128440857,-5.040393352508545,-8.398261070251465
1753063262315,-1.688510775566101,-4.499303340911865,-9.834781646728516
1753063262366,-1.8273744583129883,,
1753063262367,,-3.977367639541626,-9.413402557373047
1753063263368,-1.3772644996643066,,
1753063263381,-1.27191960811615,-3.642179250717163,-8.053496360778809
1753063263382,,,-8.853158950805664
1753063263418,-1.1617863178253174,,
1753063263420,-1.0660183429718018,-4.039616584777832,-8.46051025390625
1753063263468,-1.1713632345199585,-4.499303340911865,-8.805274963378906
1753063263517,-1.6166846752166748,-4.049193859100342,-8.805274963378906
1753063263568,-1.003769040107727,,
1753063263569,,-4.43705415725708,-8.886677742004395
1753063263617,-1.5544354915618896,-4.144961833953857,-8.838793754577637
1753063263667,-1.247977614402771,,
1753063263668,-1.3772644996643066,-4.350862979888916,-9.044695854187012
1753063263747,-1.3006501197814941,-4.025251388549805,-8.723872184753418
1753063263752,-1.30543851852417,-4.135385036468506,-8.73344898223877
1753063263800,-1.2000936269760132,,
1753063263801,-1.2192472219467163,-4.034828186035156,-8.570643424987793
1753063263849,-1.2910733222961426,,
1753063263850,-1.1665748357772827,-4.34607458114624,-8.972869873046875
1753063263900,-1.0995371341705322,,
1753063263901,-1.4155718088150024,-4.84406852722168,-9.715071678161621
1753063263950,-1.6023194789886475,,
1753063263951,-1.6071078777313232,,
1753063263952,,-3.244741916656494,-8.106168746948242
1753063264001,-1.4299370050430298,,
1753063264002,,-3.862445831298828,-9.202713012695312
1753063268594,-1.1569979190826416,,
1753063268595,-1.003769040107727,,
1753063268596,-1.18094003200531,-4.40353536605835,
1753063268597,,-3.8289270401000977,-8.738237380981445
1753063268598,,,-8.886677742004395
1753063268599,-1.4873977899551392,-4.0779242515563965,-9.078214645385742
1753063268652,-1.5735890865325928,-3.694851875305176,-8.728660583496094
1753063268703,-1.4347254037857056,-3.709217071533203,
1753063268704,,-3.7187938690185547,-8.752602577209473
1753063281821,-1.3389573097229004,-4.020462989807129,
1753063281822,,-4.106654644012451,-8.929773330688477
1753063281823,,,-8.9680814743042
1753063281824,-1.6262614727020264,,
1753063281825,-1.635838270187378,-4.082712650299072,
1753063281826,-1.0181342363357544,,-9.140463829040527
1753063281829,-0.5345055460929871,-4.116231441497803,-9.140463829040527
1753063281881,-0.6733692288398743,-4.13059663772583,-8.929773330688477
1753063281930,-0.5440823435783386,,
1753063281931,-0.7595604658126831,-4.279036998748779,-9.030330657958984
1753063281932,,,-9.533112525939941
1753063282012,-1.1234791278839111,,
1753063282013,,-4.8488569259643555,-9.360730171203613
1753063282017,-0.39564183354377747,-4.547187805175781,-8.422203063964844
1753063282064,-0.40521863102912903,,
1753063282065,-0.6685808300971985,-4.058770656585693,-8.417414665222168
1753063282114,-0.2472013235092163,,
1753063282115,,-3.4554316997528076,-8.154052734375
1753063282167,-0.08439560979604721,-3.8337154388427734,-7.7661919593811035
1753063282214,-0.14664486050605774,-4.149750232696533,-7.976881504058838
1753063282266,-0.2759317457675934,-4.57112979888916,-8.039131164550781
1753063282314,-0.2472013235092163,-4.75308895111084,-6.521206855773926
1753063285620,-0.5105634927749634,,
1753063285622,3.1525650024414062,-6.338050365447998,
1753063285623,,-6.395511150360107,
1753063285624,,-9.297284126281738,
1753063285626,,,-8.58500862121582
1753063285627,,,-5.10383939743042
1753063285628,,,-5.913079738616943
1753063285674,-0.1322796493768692,-7.659649848937988,-6.090250492095947
1753063285724,0.1885433793067932,-7.865550994873047,
1753063285725,,-7.817667007446289,-5.98490571975708
1753063285773,-0.02693476900458336,-7.664438247680664,-5.956175327301025
1753063285774,,,-5.960963726043701
1753063285824,0.15502455830574036,-7.788936614990234,-5.8651957511901855
1753063285874,-0.041299980133771896,-7.70274543762207,
1753063285875,,,-6.013636112213135
1753063286849,-0.02693476900458336,,
1753063286850,-0.08918401598930359,-7.736264228820801,-5.922656536102295
1753063286855,0.2555810213088989,-7.865550994873047,-5.908291339874268
1753063286907,0.06404489278793335,-7.7649946212768555,-5.8651957511901855
1753063286957,-0.14185644686222076,,
1753063286958,-0.09397241473197937,-7.798513412475586,-6.066308498382568
1753063287006,-0.055665191262960434,,
1753063287007,0.011372458189725876,-7.721899032592773,-5.960963726043701
1753063287058,0.0736217051744461,,
1753063287059,,-7.736264228820801,-5.874772548675537
1753063287107,0.011372458189725876,-7.745841026306152,
1753063287108,,-7.693168640136719,-6.066308498382568
1753063287158,-0.08918401598930359,,
1753063287159,,-7.659649848937988,-6.080673694610596
1753063288026,-0.01735796220600605,-7.554305076599121,
1753063288027,,-7.6548614501953125,-5.989694118499756
1753063288031,0.0017956512747332454,-7.6979570388793945,-5.903502941131592
1753063288078,-0.13706804811954498,,
1753063288079,,-7.779359817504883,-6.071096897125244
1753063288128,-0.08918401598930359,,
1753063288129,,-7.6979570388793945,-5.9753289222717285
1753063288179,-0.13706804811954498,,
1753063288180,,-7.769783020019531,-5.999270915985107
1753063334812,-0.002992752008140087,,
1753063334813,,-7.836820602416992,-5.8891377449035645
1753063334814,,,-5.908291339874268
1753063334815,-0.12749123573303223,,
1753063334816,-0.2472013235092163,-6.874351501464844,
1753063334817,,-3.5655648708343506,
1753063334818,,-3.6373908519744873,
1753063334820,,-3.714005470275879,
1753063334821,,-3.642179250717163,
1753063334826,,-1.7028759717941284,
1753063334827,,-1.6789339780807495,
1753063334828,,-3.929483652114868,
1753063334829,,-4.609436988830566,
1753063334830,,,-9.011177062988281
1753063334831,,,-9.384672164916992
1753063334832,,,-8.604162216186523
1753063334833,-0.10354922711849213,,
1753063334834,-1.6549919843673706,,
1753063334835,-1.391629695892334,,
1753063334836,-1.2431892156600952,,
1753063334875,-2.1481974124908447,-2.3780407905578613,-9.27453899383545
1753063334926,-2.492962598800659,,
1753063334927,-2.3540987968444824,-2.516904592514038,-9.09257984161377
1753063335622,-2.02848744392395,,
1753063335623,-1.9470845460891724,,
1753063335624,-1.8704700469970703,-2.583942174911499,-9.130887031555176
1753063335627,-2.0907366275787354,-2.339733600616455,-9.542689323425293
1753063335673,-1.8513164520263672,,
1753063335674,-1.8800468444824219,-2.8856115341186523,-9.140463829040527
1753063335724,-1.9949685335159302,,
1753063335725,-1.8513164520263672,-3.0867245197296143,-9.437344551086426
1753063335774,-1.7507599592208862,-2.65097975730896,-9.528324127197266
1753063335824,-3.067570924758911,,
1753063335825,-2.6797101497650146,-2.607884168624878,-10.395025253295898
1753063335874,-2.0428526401519775,-1.8417396545410156,-9.327211380004883
1753063335941,-2.0907366275787354,,
1753063335942,-2.1338322162628174,-2.320580005645752,-9.585784912109375
1753063335989,-2.2248120307922363,-2.0907366275787354,-9.140463829040527
1753063336039,-2.0045454502105713,-2.497750997543335,-9.734225273132324
1753063336040,,,-9.901819229125977
1753063336089,-2.3253684043884277,,
1753063336090,-2.1051018238067627,-2.7563247680664062,-9.552266120910645
1753063336139,-1.9087773561477661,-2.5312697887420654,-9.513958930969238
1753063336386,-2.627037763595581,,
1753063336387,-1.669357180595398,-2.4211363792419434,-9.164405822753906
1753063336389,-1.5831658840179443,,
1753063336390,,-3.0340521335601807,-8.91540813446045
1753063336438,-1.5831658840179443,-2.2200236320495605,-8.043919563293457
1753063336488,-2.057217836380005,,
1753063336489,-2.823362350463867,-3.316567897796631,-10.323199272155762
1753063336537,-1.2096704244613647,,
1753063336538,-2.100313425064087,-2.1960813999176025,-7.555501937866211
1753063336583,-2.449866771697998,,
1753063336584,-1.6932991743087769,-3.891176223754883,-10.950480461120605
1753063336631,-0.7643488645553589,-3.1920695304870605,-7.8332295417785645
1753063336680,-0.9894038438796997,,
1753063336681,-1.468244194984436,-4.700416564941406,-10.543465614318848
1753063336731,-2.2200236320495605,-4.604648590087891,-10.232219696044922
1753063336780,-1.5400702953338623,,
1753063336781,-2.234388828277588,-2.4355015754699707,-8.340800285339355
1753063341026,-1.6502034664154053,,
1753063341029,-0.5919663906097412,,
1753063341030,,-2.8616695404052734,-8.058284759521484
1753063341038,-2.80899715423584,,
1753063341039,-1.3772644996643066,-2.9909565448760986,
1753063341040,-1.2336124181747437,,-9.657610893249512
1753063341041,-1.4969745874404907,-3.9007530212402344,-8.814851760864258
1753063341090,-1.8896236419677734,,
1753063341091,-1.789067268371582,-2.8999767303466797,-8.666411399841309
1753063341140,-1.7699135541915894,,
1753063341141,-1.975814938545227,-3.1058781147003174,-9.140463829040527
1753063341190,-1.3868412971496582,-2.7946319580078125,-8.192359924316406
1753063341914,-1.8513164520263672,-3.9438488483428955,
1753063341915,,-3.958214044570923,-9.710283279418945
1753063341920,-1.6932991743087769,,
1753063341921,-1.4107834100723267,-2.9095535278320312,-8.268974304199219
1753063341972,-2.100313425064087,,
1753063341973,,-3.7906198501586914,-9.944915771484375
1753063342023,-1.5544354915618896,,
1753063342024,,-3.268683910369873,-9.097368240356445
1753063353798,-2.65097975730896,,
1753063353799,,-3.1968579292297363,-9.485228538513184
1753063353800,,,-8.9249849319458
1753063353801,-1.2336124181747437,-3.599083662033081,
1753063353802,-0.3669114112854004,-4.22157621383667,-7.814075946807861
1753063353805,-0.8792705535888672,,
1753063353806,,-4.379593372344971,-8.776544570922852
1753063353857,-0.9989806413650513,-4.111443042755127,-8.364742279052734
1753063353908,-0.5871779918670654,-6.012439250946045,-10.557830810546875
1753063353957,-1.0229226350784302,-5.662885665893555,-9.27453899383545
1753063354008,-0.30466216802597046,-6.1082072257995605,-9.911396026611328
1753063354057,-1.9183541536331177,,
1753063354059,-1.3964180946350098,-3.5703532695770264,
1753063354060,,,-7.641693115234375
1753063354108,-0.050876785069704056,-3.1010897159576416,-6.86597204208374
1753063354157,-2.081159830093384,-3.5895068645477295,-8.221090316772461
1753063354208,0.1933317929506302,-3.560776472091675,-6.406285285949707
1753063354257,-1.592742681503296,-4.9350481033325195,-9.782109260559082
1753063354308,-0.9750386476516724,-4.604648590087891,-9.518747329711914
1753063354357,-1.731606364250183,-5.792172431945801,-11.017518043518066
1753063354408,-1.5304933786392212,-5.380369663238525,-9.853935241699219
1753063354456,-0.7547720670700073,,
1753063354457,-1.1186907291412354,-3.6086604595184326,-8.374319076538086
1753063354507,-0.9941922426223755,,
1753063354508,,-4.834491729736328,-8.64246940612793
1753063354556,-0.6350619792938232,,
1753063354557,-0.6973112225532532,-4.058770656585693,-7.761403560638428
1753063354607,-0.8122329115867615,,
1753063354608,-0.7978677153587341,-3.7858314514160156,-7.785345554351807
1753063354656,-0.7595604658126831,,
1753063354657,-0.7978677153587341,-4.633378982543945,-8.283339500427246
1753063354707,-0.821809709072113,,
1753063354708,-0.8313865661621094,-4.590283393859863,-8.359953880310059
1753063354756,-1.0324994325637817,,
1753063354757,-1.1330559253692627,-4.489726543426514,-8.834005355834961
1753063354812,-1.2767080068588257,-4.633378982543945,-9.059061050415039
1753063354856,-0.8984242081642151,,
1753063354857,,-4.733935356140137,-9.188347816467285
1753063354907,-1.4059948921203613,,
1753063354908,,-4.460996150970459,-9.351153373718262
1753063354956,-0.9175778031349182,,
1753063354957,-0.6637924313545227,-4.422688961029053,-8.661623001098633
1753063355007,-0.960673451423645,,
1753063355008,,-4.422688961029053,-8.762179374694824
1753063355032,-1.0420763492584229,,
1753063355033,,-4.805761337280273,-9.09257984161377
1753063355081,-1.0708067417144775,,
1753063355082,,-4.724358558654785,-9.011177062988281
1753063355132,-1.2527660131454468,,
1753063355133,-1.0181342363357544,-4.015674591064453,-8.297704696655273
1753063355182,-1.1713632345199585,-4.3173441886901855,-8.398261070251465
1753063355232,-0.9127894043922424,,
1753063355233,-0.8265981078147888,-4.523245334625244,-8.671199798583984
1753063355281,-0.9080010056495667,-4.743512153625488,-9.097368240356445
1753063355282,,,-9.049484252929688
1753063355332,-1.3389573097229004,,
1753063355333,,-4.2742486000061035,-8.7669677734375
1753063355381,-0.8888474106788635,,
1753063355382,-0.7739257216453552,-3.886387825012207,-8.21151351928711
1753063355432,-0.7260416746139526,,
1753063355433,-1.4107834100723267,-4.5423994064331055,-8.695141792297363
1753063355481,-1.5831658840179443,,
1753063355482,-1.4203602075576782,-4.307767391204834,-8.886677742004395
1753063355532,-1.2623428106307983,,
1753063355533,,-4.31255578994751,-8.743025779724121
1753063355581,-0.9989806413650513,,
1753063355582,-1.0420763492584229,-4.413112163543701,-8.58500862121582
1753063355583,,,-8.623315811157227
1753063355633,-1.1522095203399658,-4.513668537139893,-8.934561729431152
1753063355683,-0.9558850526809692,-4.264671802520752,
1753063355684,,,-8.704718589782715
1753063355732,-0.9463081955909729,-4.523245334625244,-8.80048656463623
1753063355783,-1.0085574388504028,-4.446630954742432,-8.89146614074707
1753063355832,-0.9941922426223755,-3.7714662551879883,-8.264185905456543
1753063355882,-1.1186907291412354,,
1753063355883,-0.9702502489089966,-4.025251388549805,-8.73344898223877
1753063355931,-1.104325532913208,,
1753063355932,-1.1522095203399658,-4.441842555999756,-8.963293075561523
1753063355982,-1.2671312093734741,-4.633378982543945,-9.331999778747559
1753063356031,-0.9463081955909729,-4.6956281661987305,-9.312846183776855
1753063356082,-1.3341689109802246,-3.9917328357696533,-8.73344898223877
1753063356131,-1.3102269172668457,-3.3261446952819824,
1753063356132,,-3.3405098915100098,-8.249820709228516
1753063356183,-1.2096704244613647,-3.714005470275879,-8.604162216186523
1753063356231,-1.1953052282333374,-4.484938144683838,
1753063356232,,,-8.934561729431152
1753063356283,-1.224035620689392,-4.417900562286377,-8.996811866760254
1753063356694,-1.2431892156600952,-3.9917328357696533,
1753063356695,,-4.379593372344971,-8.795698165893555
1753063356748,-1.4826093912124634,-3.824138641357422,
1753063356749,,-3.709217071533203,-8.6089506149292
1753063356795,-1.4538789987564087,,
1753063356797,-1.3437457084655762,-3.78104305267334,-8.561066627502441
1753063356846,-1.4012064933776855,-4.22157621383667,-9.09257984161377
1753063356895,-1.4634557962417603,-4.216787815093994,-9.365518569946289
1753063356946,-1.7076643705368042,-3.579930067062378,-8.853158950805664
1753063356995,-1.5544354915618896,-3.8289270401000977,-9.298480987548828
1753063357046,-1.5640122890472412,-3.5416228771209717,-8.867524147033691
1753063357082,-1.6645687818527222,,
1753063357083,-1.6789339780807495,-3.6326024532318115,-9.154829025268555
1753063357130,-1.731606364250183,-3.62302565574646,-9.087791442871094
1753063357179,-1.3772644996643066,,
1753063357180,-1.7172411680221558,-3.575141668319702,-9.087791442871094
1753063357230,-1.6310498714447021,-3.512892484664917,
1753063357231,,,-8.905831336975098
1753063357280,-1.6166846752166748,,
1753063357281,,-3.618237257003784,-9.106945037841797
1753063357331,-1.4873977899551392,-3.3022027015686035,-8.82442855834961
1753063357332,,,-8.987235069274902
1753063357381,-1.5831658840179443,-3.311779499053955,-8.920196533203125
1753063362971,-1.4443022012710571,,
1753063362972,-1.511339783668518,,
1753063362973,-0.9510966539382935,-3.6996402740478516,
1753063362974,,-2.9670145511627197,-9.150040626525879
1753063362975,,,-9.145252227783203
1753063362976,-1.6071078777313232,-3.8959646224975586,
1753063363026,-1.3533225059509277,,
1753063363027,-0.8984242081642151,-3.958214044570923,-9.1260986328125
1753063363077,-1.425148606300354,,
1753063363078,,-3.2399535179138184,-8.594585418701172
1753063363126,-1.6741455793380737,,
1753063363127,,-2.871246337890625,-8.594585418701172
1753063363677,-1.2192472219467163,,
1753063363678,-1.8034324645996094,-3.7618894577026367,-9.446921348571777
1753063363686,-1.7699135541915894,-2.780266761779785,-8.920196533203125
1753063363737,-1.8800468444824219,-3.642179250717163,-9.743802070617676
1753063363738,,,-9.935338973999023
1753063363786,-1.6645687818527222,,
1753063363787,,-3.110666513442993,-8.881889343261719
1753063363906,-1.6980875730514526,,
1753063363907,,-2.876034736633301,-9.188347816467285
1753063363911,-1.9614497423171997,-3.0867245197296143,-8.704718589782715
1753063363957,-1.3341689109802246,,
1753063363958,-1.755548357963562,,
1753063363959,,-3.072359323501587,-9.030330657958984
1753063364008,-2.0859482288360596,-3.4745852947235107,-9.451709747314453
1753063364059,-1.391629695892334,-3.5942952632904053,-8.920196533203125
1753063364108,-2.3540987968444824,-2.8616695404052734,
1753063364109,,-2.6653449535369873,-9.346364974975586
1753063364158,-1.7986440658569336,,
1753063364159,,-2.516904592514038,-8.503605842590332
1753063367773,-1.956661343574524,,
1753063367774,-1.6310498714447021,-2.7994203567504883,-9.030330657958984
1753063367775,-1.9039889574050903,-4.7387237548828125,-9.097368240356445
1753063367776,-1.2144588232040405,-3.7714662551879883,-8.508394241333008
1753063367824,-1.2527660131454468,-3.7044286727905273,-8.441356658935547
1753063367875,-1.4395138025283813,-3.6709096431732178,-9.083003044128418
1753063367925,-1.5209165811538696,-3.7283706665039062,-8.814851760864258
1753063367976,-1.0947487354278564,-4.3173441886901855,
1753063367977,,,-9.451709747314453
1753063368025,-1.3533225059509277,-4.40353536605835,-9.34157657623291
1753063368026,,,-9.298480987548828
1753063368076,-1.9901801347732544,-3.62302565574646,
1753063368077,,,-9.188347816467285
1753063368125,-1.1857284307479858,-3.862445831298828,-8.757390975952148
1753063368175,-1.4969745874404907,,
1753063368176,-1.4059948921203613,-4.240729808807373,-8.776544570922852
1753063368225,-1.0468647480010986,-3.4123358726501465,-8.082226753234863
1753063377372,-1.5161281824111938,,
1753063377373,-1.348534107208252,,
1753063377374,0.1933317929506302,-3.3069911003112793,
1753063377375,,-4.666897773742676,-8.819640159606934
1753063377376,,,-9.212289810180664
1753063377380,0.3130418658256531,,
1753063377383,,-6.69718074798584,-7.560290336608887
1753063377431,-0.25677812099456787,-6.917447090148926,-7.387907981872559
1753063377482,0.6721721291542053,,
1753063377483,,-6.859986305236816,-6.7941460609436035
1753063391110,0.03531447425484657,,
1753063391111,-2.033275842666626,,
1753063391112,-0.32860419154167175,,
1753063391114,-1.5065513849258423,,
1753063391115,-1.9614497423171997,-6.38114595413208,
1753063391116,,-4.633378982543945,
1753063391117,,-4.192845821380615,-6.7941460609436035
1753063391118,,,-8.838793754577637
1753063391162,-1.2862848043441772,-4.43705415725708,-9.193136215209961
1753063391213,-1.391629695892334,,
1753063391214,,-4.365228176116943,-8.958504676818848
1753063391848,-1.5783774852752686,,
1753063391849,-1.1905168294906616,-3.891176223754883,
1753063391850,-1.18094003200531,-3.9390604496002197,-8.599373817443848
1753063391901,-1.1522095203399658,,
1753063391902,,-3.397970676422119,-8.072649955749512
1753063391952,-1.4347254037857056,-4.010886192321777,-8.896254539489746
1753063392001,-1.6406266689300537,,
1753063392002,-1.592742681503296,-3.642179250717163,-8.862735748291016
1753063394383,-1.635838270187378,,
1753063394384,-1.7651251554489136,-3.776254653930664,-9.164405822753906
1753063394385,,,-8.575431823730469
1753063394390,-1.568800687789917,,
1753063394391,,-3.4362781047821045,-8.762179374694824
1753063394440,-2.2487540245056152,,
1753063394441,,-3.24953031539917,-9.509170532226562
1753063394491,-2.138620615005493,-3.6086604595184326,
1753063394492,,-3.421912670135498,-9.202713012695312
1753063439502,-1.1091139316558838,-3.642179250717163,
1753063439503,,-4.322132587432861,
1753063439504,,-4.887164115905762,-8.628104209899902
1753063439505,,,-9.188347816467285
1753063439506,,,-8.221090316772461
1753063439507,-1.224035620689392,,-8.85794734954834
1753063439508,-1.003769040107727,,
1753063439509,0.6338648796081543,,
1753063439510,-0.2663549482822418,,
1753063439511,-0.3477577865123749,-4.997297286987305,
1753063439512,,-4.882375717163086,
1753063439513,,-7.35319185256958,-6.6361284255981445
1753063439514,,,-6.5930328369140625
1753063439515,,,-9.97364616394043
1753063439516,-0.5488707423210144,-4.063559055328369,-9.025542259216309
1753063439517,,,-10.366294860839844
1753063439519,-0.9989806413650513,,
1753063439520,,-4.053982257843018,-8.757390975952148
1753063439570,-2.3062148094177246,,
1753063439571,,-3.934272050857544,-9.456498146057129
1753063439621,-1.6549919843673706,,
1753063439622,-1.8082208633422852,-2.8568811416625977,-6.727108001708984
1753063439671,-0.9750386476516724,-3.493738889694214,-7.972093105316162
1753063439722,-2.4402899742126465,-3.958214044570923,-8.762179374694824
1753063439771,-1.425148606300354,,
1753063439772,,-4.073135852813721,-8.522759437561035
1753063439822,-1.9422961473464966,-2.9287071228027344,-8.182783126831055
1753063439823,,,-9.652822494506836
1753063439871,-3.024475336074829,-2.3349452018737793,-8.996811866760254
1753063439922,-1.568800687789917,-3.848080635070801,
1753063439923,,,-9.25059700012207
1753063439971,-2.430713176727295,,
1753063439972,,-4.2742486000061035,-9.571419715881348
1753063440022,-1.6262614727020264,-3.053205728530884,-7.713519096374512
1753063440071,-1.9470845460891724,-3.886387825012207,-9.729436874389648
1753063440122,-2.1912930011749268,-4.599860191345215,-8.714295387268066
1753063440171,-0.9080010056495667,-1.425148606300354,-5.549160957336426
1753063440222,-2.6797101497650146,-4.1641154289245605,-11.477204322814941
1753063440271,-2.7946319580078125,-6.026804447174072,-7.373542785644531
1753063440322,1.0696096420288086,-1.9183541536331177,-7.699153900146484
1753063440370,-3.7475242614746094,,
1753063440371,-3.5942952632904053,-3.6996402740478516,-10.375871658325195
1753063440421,-2.80899715423584,,
1753063440422,,-3.78104305267334,-9.37509536743164
1753063440471,-1.4059948921203613,-2.8856115341186523,-8.197148323059082
1753063440522,-3.603872060775757,,
1753063440523,,-5.011662483215332,-11.956045150756836
1753063440571,2.3959972858428955,-4.31255578994751,-6.679224014282227
1753063440621,-4.116231441497803,,
1753063440622,,-3.733159065246582,-11.817180633544922
1753063440671,-3.733159065246582,-2.8137855529785156,-8.690353393554688
1753063440722,-1.080383539199829,-3.757101058959961,-9.94970417022705
1753063440771,-2.564788579940796,-3.6134488582611084,
1753063440772,,-3.177704095840454,-9.92097282409668
1753063440821,-3.2351651191711426,,
1753063440822,,-3.4410665035247803,-9.566631317138672
1753063440871,-1.6837223768234253,-3.024475336074829,-8.043919563293457
1753063440922,-1.18094003200531,-3.2782607078552246,
1753063440923,,-3.862445831298828,-7.7470383644104
1753063440971,-1.9518729448318481,-3.5272576808929443,-8.508394241333008
1753063441021,-1.18094003200531,,
1753063441022,,-3.7666778564453125,-7.933785915374756
1753063441071,-2.033275842666626,-3.177704095840454,
1753063441072,,-3.1298201084136963,-8.513182640075684
1753063441121,-2.3062148094177246,,
1753063441122,,-3.0340521335601807,-8.963293075561523
1753063441171,-2.2391772270202637,-3.886387825012207,-9.260173797607422
1753063441221,-1.9375077486038208,,
1753063441222,-1.875258445739746,-4.259883403778076,-9.55705451965332
1753063441271,-1.9662381410598755,-3.311779499053955,-8.776544570922852
1753063441321,-2.765901565551758,-3.158550500869751,
1753063441322,,-3.512892484664917,-9.269750595092773
1753063441371,-2.1481974124908447,-3.5942952632904053,
1753063441372,,-2.823362350463867,-9.06863784790039
1753063441421,-0.8888474106788635,,
1753063441422,-0.44831427931785583,-2.583942174911499,
1753063441423,,,-6.525995254516602
1753063441471,-3.024475336074829,-4.417900562286377,-11.295245170593262
1753063441522,-1.9901801347732544,-3.354875087738037,
1753063441523,,,-6.339247703552246
1753063441571,-2.828150749206543,-2.8377275466918945,-10.342352867126465
1753063441622,-2.65097975730896,-4.475361347198486,-9.384672164916992
1753063441671,-1.1378443241119385,-3.3261446952819824,-8.91540813446045
1753063441672,,,-9.762955665588379
1753063441722,-2.540846586227417,-4.125808238983154,-9.92097282409668
1753063441772,-0.6685808300971985,,
1753063441773,,-3.9869444370269775,-8.704718589782715
1753063441820,-2.234388828277588,,
1753063441821,-1.5879542827606201,-4.144961833953857,-9.791686058044434
1753063441871,-2.631826162338257,,
1753063441872,-0.7930793166160583,-2.722805976867676,-7.526771545410156
1753063441921,-1.71245276927948,-5.236717700958252,-11.486781120300293
1753063441972,-4.6956281661987305,-4.882375717163086,-9.88745403289795
1753063442020,-2.014122247695923,,
1753063442021,-3.7187938690185547,-1.0133458375930786,-7.052719593048096
1753063442072,-2.4881742000579834,-4.154538631439209,-12.98076343536377
1753063442121,-0.02693476900458336,-1.8082208633422852,
1753063442122,,-2.9478609561920166,-3.0544028282165527
1753063442171,-0.9127894043922424,,
1753063442172,-2.2679076194763184,-4.556764602661133,-12.928091049194336
1753063442221,0.0975637212395668,-5.361216068267822,-5.788581371307373
1753063442271,-2.339733600616455,,
1753063442272,-3.3883938789367676,-3.005321741104126,-10.830769538879395
1753063442321,-3.5847184658050537,-3.891176223754883,-8.934561729431152
1753063442371,-0.821809709072113,,
1753063442372,-0.20889410376548767,-3.737947463989258,-9.561842918395996
1753063442420,-2.425924777984619,,
1753063442421,,-2.943072557449341,-9.020753860473633
1753063442471,-3.3883938789367676,,
1753063442472,-2.866457939147949,-4.417900562286377,-11.204265594482422
1753063442520,-1.1857284307479858,,
1753063442521,-0.3908534348011017,-2.761113166809082,-7.091026782989502
1753063442572,-1.511339783668518,-3.848080635070801,-9.087791442871094
1753063442622,-1.7268179655075073,-4.465784549713135,-7.794922351837158
1753063442671,-0.4339490532875061,,
1753063442672,-1.324592113494873,-2.9047651290893555,-6.92343282699585
1753063442721,-2.713229179382324,-3.733159065246582,
1753063442722,,,-9.461286544799805
1753063442772,-2.5025393962860107,-3.378817081451416,-8.46051025390625
1753063442820,-3.3931822776794434,,
1753063442821,-2.5743653774261475,-4.082712650299072,-10.691905975341797
1753063442872,-3.206434726715088,-3.776254653930664,-8.89146614074707
1753063442921,-2.454655408859253,,
1753063442922,,-2.6126725673675537,-9.073426246643066
1753063442972,-1.7220295667648315,-4.408323764801025,-9.279327392578125
1753063443021,-0.414795458316803,-3.3931822776794434,-7.933785915374756
1753063443071,-2.1912930011749268,,
1753063443072,-3.00053334236145,-3.1058781147003174,-8.182783126831055
1753063443121,-0.9654618501663208,-3.62302565574646,
1753063443122,,-3.579930067062378,-8.436568260192871
1753063443173,-1.6454150676727295,-3.661332845687866,-8.61852741241455
1753063443221,-2.2439656257629395,-3.5942952632904053,-9.360730171203613
1753063443271,-2.1146786212921143,,
1753063443272,-2.272696018218994,-4.092289447784424,-9.202713012695312
1753063443320,-1.8800468444824219,,
1753063443321,-1.0468647480010986,-2.3301568031311035,-6.818088054656982
1753063443372,-1.7699135541915894,-4.87758731842041,-10.778097152709961
1753063443421,-0.9702502489089966,-5.332485675811768,-7.04793119430542
1753063443472,-1.7172411680221558,,
1753063443474,-2.80899715423584,-2.0236990451812744,-8.216301918029785
1753063443521,-2.363675594329834,-4.288613796234131,-8.527547836303711
1753063443571,-1.3964180946350098,,
1753063443572,-0.32381579279899597,,
1753063443573,-0.7547720670700073,-4.446630954742432,-9.1260986328125
1753063443621,-2.1338322162628174,-4.532822132110596,-9.18355941772461
1753063443671,-2.516904592514038,,
1753063443672,,-3.733159065246582,-9.944915771484375
1753063443720,-2.4642322063446045,,
1753063443721,,-4.168903827667236,-10.787673950195312
1753063443771,-2.2822728157043457,,
1753063443772,,-4.882375717163086,-10.596138000488281
1753063443820,-1.6741455793380737,,
1753063443821,,-2.689286947250366,-8.49402904510498
1753063443872,-2.7994203567504883,-3.230376720428467,-9.92097282409668
1753063443921,-1.0420763492584229,-4.326920986175537,-7.742249965667725
1753063443972,-0.67815762758255,-4.2742486000061035,-8.21151351928711
1753063444021,0.1646013706922531,-2.473809003829956,-5.190030574798584
1753063444072,-3.8528690338134766,-3.90554141998291,
1753063444073,,-4.714781761169434,-12.339117050170898
1753063444121,-0.7643488645553589,-3.096301317214966,-4.639364242553711
1753063444172,-0.21847090125083923,-3.4410665035247803,-9.059061050415039
1753063444220,-3.134608507156372,,
1753063444221,-3.1872811317443848,-3.7858314514160156,-8.589797019958496
1753063444271,-1.425148606300354,,
1753063444272,-0.7595604658126831,-4.336497783660889,-9.906607627868652
1753063444321,-2.014122247695923,-3.8097734451293945,-8.292916297912598
1753063444371,-1.4826093912124634,,
1753063444372,,-4.408323764801025,-8.996811866760254
1753063444420,-2.301426410675049,,
1753063444421,,-3.445854902267456,-7.8092875480651855
1753063444471,-0.960673451423645,,
1753063444472,,-3.3931822776794434,-8.292916297912598
1753063444520,-2.3971943855285645,,
1753063444521,,-4.049193859100342,-8.575431823730469
1753063444571,-2.0189106464385986,,
1753063444572,-1.3724761009216309,-3.6134488582611084,-8.728660583496094
1753063444573,,,-8.364742279052734
1753063444620,-1.5257049798965454,,
1753063444621,-2.1146786212921143,-3.5655648708343506,-7.689577102661133
1753063444671,-2.0428526401519775,-3.752312660217285,-9.193136215209961
1753063444720,-1.9039889574050903,,
1753063444721,-1.6454150676727295,-3.3213562965393066,-8.21151351928711
1753063444771,-1.3772644996643066,,
1753063444772,,-3.709217071533203,-8.158841133117676
1753063444820,-2.0045454502105713,,
1753063444821,-1.4873977899551392,-3.7427358627319336,-8.474875450134277
1753063444872,-1.2767080068588257,-4.101866245269775,-8.848370552062988
1753063444921,-2.0476410388946533,-4.073135852813721,-8.97765827178955
1753063444971,-1.391629695892334,-3.6134488582611084,
1753063444972,,,-8.699930191040039
1753063445021,-2.1146786212921143,-4.302978992462158,-9.52353572845459
1753063445072,-1.6023194789886475,-3.8145618438720703,
1753063445073,,,-8.810063362121582
1753063445121,-1.9039889574050903,-3.733159065246582,-9.130887031555176
1753063445171,-2.5743653774261475,,
1753063445172,-1.8896236419677734,-3.5464112758636475,-8.838793754577637
1753063445220,-1.3341689109802246,,
1753063445221,-1.3964180946350098,-3.9438488483428955,-8.757390975952148
1753063445271,-1.7842788696289062,,
1753063445272,-1.8800468444824219,-3.9438488483428955,-8.537124633789062
1753063445321,-1.5209165811538696,-3.292625904083252,
1753063445322,,-3.78104305267334,-8.42699146270752
1753063445372,-2.057217836380005,,
1753063445373,-2.076371431350708,-4.22157621383667,
1753063445374,,,-9.408614158630371
1753063445421,-1.0133458375930786,-3.886387825012207,-7.938574314117432
1753063445472,-1.9662381410598755,-3.646967649459839,-9.34157657623291
1753063445521,-1.3868412971496582,-3.6900634765625,-8.503605842590332
1753063445572,-1.6406266689300537,-4.298190593719482,-9.312846183776855
1753063445621,-2.0045454502105713,-3.575141668319702,-8.49402904510498
1753063445671,-1.4395138025283813,,
1753063445672,-1.8417396545410156,-4.106654644012451,-8.70950698852539
1753063445721,-1.6071078777313232,-3.8815994262695312,-8.283339500427246
1753063445772,-1.1905168294906616,-3.6086604595184326,-7.905055522918701
1753063445821,-2.014122247695923,-3.508104085922241,-7.981669902801514
1753063445872,-1.2096704244613647,-4.159327030181885,-8.61852741241455
1753063445922,-2.3493103981018066,,
1753063445923,-1.7842788696289062,-4.5854949951171875,-9.317634582519531
1753063445971,-1.956661343574524,,
1753063445972,-1.4059948921203613,-3.397970676422119,-8.599373817443848
1753063446021,-2.3062148094177246,,
1753063446022,,-4.518456935882568,-9.86351203918457
1753063446072,-1.6932991743087769,-4.010886192321777,-8.881889343261719
1753063446121,-1.8608932495117188,-3.5703532695770264,-8.61852741241455
1753063446172,-2.076371431350708,-4.0779242515563965,-9.154829025268555
1753063446221,-1.27191960811615,-3.354875087738037,-7.909843921661377
1753063446271,-1.9949685335159302,-3.9390604496002197,-8.503605842590332
1753063446321,-1.913565754890442,-3.9630024433135986,-8.484452247619629
1753063446371,-1.1522095203399658,,
1753063446372,,-3.6709096431732178,-8.345588684082031
1753063446421,-2.6414029598236084,-3.685275077819824,-9.27453899383545
1753063446471,-1.8944120407104492,,
1753063446472,-1.4826093912124634,-3.048417329788208,-7.885901927947998
1753063446521,-2.895188331604004,-4.4274773597717285,-10.74457836151123
1753063446571,-0.8696937561035156,,
1753063446572,0.1215057373046875,-3.292625904083252,-4.543596267700195
1753063446620,-4.211999416351318,,
1753063446621,-3.0388405323028564,-2.957437753677368,-9.121310234069824
1753063446671,1.1797429323196411,,
1753063446672,-0.06524199992418289,-5.705981254577637,-7.134122371673584
1753063446721,-2.124255418777466,-4.714781761169434,-9.628880500793457
1753063446771,-2.4690206050872803,-3.488950490951538,
1753063446772,,-5.140949726104736,-8.781332969665527
1753063446821,-0.8792705535888672,-4.805761337280273,-8.407837867736816
1753063446872,-2.8377275466918945,-3.5464112758636475,-10.050260543823242
1753063446921,-2.315791606903076,,
1753063446922,,-4.202422618865967,
1753063446972,-1.0324994325637817,-3.9917328357696533,-9.533112525939941
1753063447021,-2.2870612144470215,-3.800196647644043,-8.963293075561523
1753063447071,-1.5735890865325928,,
1753063447072,-1.6597803831100464,-3.819350242614746,-8.340800285339355
1753063447121,-1.568800687789917,,
1753063447122,,-3.4602200984954834,-7.828441143035889
1753063447171,-1.3868412971496582,,
1753063447172,-1.956661343574524,-3.3644518852233887,-7.67042350769043
1753063447221,-1.9231425523757935,-3.508104085922241,-7.881113529205322
1753063447272,-0.8457517623901367,-4.484938144683838,-8.532336235046387
1753063447321,-1.688510775566101,-2.8185739517211914,-6.765415668487549
1753063447372,-1.7938556671142578,-3.9869444370269775,-10.13166332244873
1753063447420,-1.9039889574050903,,
1753063447421,,-4.432265758514404,-8.42699146270752
1753063447471,-1.4299370050430298,,
1753063447472,-1.7076643705368042,-3.3261446952819824,-8.177994728088379
1753063447521,-2.8808231353759766,-4.240729808807373,-8.862735748291016
1753063447572,-0.9463081955909729,-3.819350242614746,-9.020753860473633
1753063447726,-2.382829189300537,,
1753063447727,-1.9710265398025513,,
1753063447728,,-3.9917328357696533,-9.030330657958984
1753063447732,-1.9279309511184692,,
1753063447733,,-3.2638955116271973,-8.101380348205566
1753063447783,-0.8409633636474609,,
1753063447784,-1.4538789987564087,-3.5416228771209717,-7.545925140380859
1753063447835,-1.9853917360305786,-4.0779242515563965,-10.016741752624512
1753063447884,-1.731606364250183,-3.488950490951538,-7.972093105316162
1753063447934,-1.468244194984436,,
1753063447935,-1.7747019529342651,-3.560776472091675,-8.877100944519043
1753063447984,-2.27748441696167,-4.465784549713135,-9.331999778747559
1753063448035,-2.100313425064087,-3.757101058959961,-9.140463829040527
1753063448085,-1.4155718088150024,-4.073135852813721,-8.637681007385254
1753063448146,-1.9375077486038208,-3.7618894577026367,-8.70950698852539
1753063448193,-1.7507599592208862,-3.158550500869751,-8.249820709228516
1753063448243,-2.1721394062042236,-3.206434726715088,-8.7669677734375
1753063448294,-1.8608932495117188,-3.4362781047821045,-8.130110740661621
1753063448343,-1.3581109046936035,-4.13059663772583,-8.40304946899414
1753063448394,-1.5017629861831665,,
1753063448395,,-3.618237257003784,-7.900267124176025
1753063448442,-1.1522095203399658,-2.1481974124908447,
1753063448443,,,-6.339247703552246
1753063448494,-2.5791537761688232,-5.303755283355713,-11.357494354248047
1753063448542,1.1988965272903442,,
1753063448543,,-4.417900562286377,-5.443816184997559
1753063448594,-2.2870612144470215,,
1753063448595,-4.638167381286621,-3.5416228771209717,-10.806827545166016
1753063448642,-3.0436289310455322,,
1753063448643,-2.871246337890625,-3.646967649459839,-9.370306968688965
1753063448693,-0.8744821548461914,,
1753063448694,-0.5392939448356628,,
1753063448695,,-4.40353536605835,-10.505158424377441
1753063448743,-3.024475336074829,-4.642955780029297,-10.878653526306152
1753063448794,-2.3493103981018066,,
1753063448795,,-4.111443042755127,-9.384672164916992
1753063448843,-2.1051018238067627,-3.2399535179138184,-8.125322341918945
1753063448893,-1.0516531467437744,,
1753063448894,-2.100313425064087,-3.426701068878174,-7.799710750579834
1753063448943,-1.2910733222961426,-4.073135852813721,-8.082226753234863
1753063448993,-1.5304933786392212,,
1753063448994,,-3.2399535179138184,-7.646481513977051
1753063449043,-2.2439656257629395,-3.694851875305176,-8.628104209899902
1753063449093,-1.30543851852417,,
1753063449094,-1.492186188697815,-3.7475242614746094,-8.628104209899902
1753063449142,-1.449090600013733,,
1753063449143,,-3.6373908519744873,-8.877100944519043
1753063449195,-2.3062148094177246,-3.8289270401000977,-9.193136215209961
1753063449243,-1.7459715604782104,-4.125808238983154,-9.044695854187012
1753063449294,-1.4538789987564087,-4.460996150970459,-9.260173797607422
1753063449343,-0.6542156338691711,-3.2207999229431152,-7.30650520324707
1753063449394,-3.00053334236145,-4.31255578994751,-11.544241905212402
1753063449443,0.8062474131584167,,
1753063449444,-1.511339783668518,-2.8185739517211914,-5.716754913330078
1753063449493,-2.9239187240600586,-3.6756980419158936,
1753063449494,,-3.737947463989258,-8.929773330688477
1753063449543,-2.382829189300537,,
1753063449544,-1.3341689109802246,-3.536834478378296,
1753063449545,,-3.752312660217285,-8.130110740661621
1753063449592,-0.6637924313545227,,
1753063449593,-1.9422961473464966,-3.862445831298828,-7.89547872543335
1753063449643,-2.6174609661102295,,
1753063449644,,-4.757877349853516,-9.595361709594727
1753063449692,-2.785055160522461,,
1753063449693,-1.5065513849258423,-3.5224692821502686,-8.67598819732666
1753063449743,-0.9558850526809692,,
1753063449744,,-3.8528690338134766,-9.06863784790039
1753063449792,-1.611896276473999,,
1753063449793,,-3.8528690338134766,-8.91540813446045
1753063449843,-2.2631192207336426,,
1753063449844,,-4.264671802520752,-10.06462574005127
1753063449893,-1.7507599592208862,-3.6373908519744873,-8.168417930603027
1753063449943,-1.4826093912124634,,
1753063449944,,-4.350862979888916,-10.150816917419434
1753063449993,-1.5735890865325928,-4.202422618865967,-9.279327392578125
1753063450044,-2.076371431350708,-3.800196647644043,-8.771756172180176
1753063450093,-2.7036523818969727,-3.5895068645477295,-8.106168746948242
1753063450143,-0.8361749649047852,,
1753063450144,-2.2631192207336426,-4.5854949951171875,-9.68155288696289
1753063450192,-1.8034324645996094,,
1753063450193,,-3.4410665035247803,-7.2107367515563965
1753063450243,-2.3493103981018066,,
1753063450244,-3.1298201084136963,-3.1729156970977783,-10.136451721191406
1753063450293,-0.25677812099456787,-3.910329818725586,-6.281786918640137
1753063450343,-1.7842788696289062,,
1753063450344,-0.9702502489089966,-3.7714662551879883,-9.00160026550293
1753063450392,-2.8616695404052734,,
1753063450393,-1.8273744583129883,-3.4075474739074707,-8.388684272766113
1753063450545,-0.7164648771286011,-3.2399535179138184,-7.378331184387207
1753063450595,-2.344521999359131,,
1753063450596,,-3.8145618438720703,-9.628880500793457
1753063450646,-1.9231425523757935,,
1753063450647,-2.1721394062042236,-4.020462989807129,-9.892242431640625
1753063450695,-1.5161281824111938,,
1753063450696,-2.7994203567504883,-3.4171242713928223,-7.70394229888916
1753063450746,-2.3684639930725098,,
1753063450747,-1.5544354915618896,-4.820126533508301,-10.49558162689209
1753063450795,-1.0324994325637817,,
1753063450796,,-3.244741916656494,-6.822876453399658
1753063450847,-1.3006501197814941,-4.1880574226379395,-9.288904190063477
1753063450896,-0.37648820877075195,-4.590283393859863,-7.550713539123535
1753063450897,,,-8.441356658935547
1753063450946,-1.3581109046936035,,
1753063450947,-1.2000936269760132,-2.6174609661102295,-7.08144998550415
1753063450995,-1.1953052282333374,,
1753063450996,,-4.370016574859619,-9.983222961425781
1753063451047,-1.003769040107727,-6.429029941558838,-8.690353393554688
1753063451095,-3.0436289310455322,,
1753063451096,-1.4012064933776855,-6.093842029571533,-12.300809860229492
1753063451146,-2.8137855529785156,,
1753063451147,,-4.034828186035156,-8.628104209899902
1753063451195,-2.229600429534912,,
1753063451196,,-4.31255578994751,-10.28010368347168
1753063451246,-1.813009262084961,,
1753063451247,-1.568800687789917,-4.240729808807373,-8.647257804870605
1753063451295,-1.544858694076538,,
1753063451296,-1.7172411680221558,-3.383605480194092,-7.660846710205078
1753063451346,-1.5592238903045654,,
1753063451347,-1.731606364250183,-4.2311530113220215,-8.431779861450195
1753063451395,-0.3477577865123749,,
1753063451396,,-3.206434726715088,-6.104615688323975
1753063451447,-1.4969745874404907,-4.1641154289245605,-9.030330657958984
1753063451496,-1.2767080068588257,-5.030816555023193,-8.048707962036133
1753063451547,-1.4730325937271118,-3.3261446952819824,-8.819640159606934
1753063451595,-1.731606364250183,,
1753063451596,,-4.973355293273926,-10.74457836151123
1753063451646,-1.0324994325637817,,
1753063451647,-0.19452889263629913,-4.197634220123291,-7.933785915374756
1753063451695,-2.761113166809082,,
1753063451696,-2.473809003829956,-5.7538652420043945,-12.056601524353027
1753063451746,-0.03651157766580582,,
1753063451747,-1.4538789987564087,-4.872798919677734,-8.053496360778809
1753063451795,-2.27748441696167,,
1753063451796,-2.4642322063446045,-3.848080635070801,-10.22264289855957
1753063451846,-3.3022027015686035,,
1753063451847,,-2.876034736633301,-6.205172061920166
1753063451895,-0.08439560979604721,,
1753063451896,,-2.9095535278320312,-6.468534469604492
1753063451946,-1.0755951404571533,,
1753063451947,,-3.536834478378296,-6.348824501037598
1753063451995,-1.8225860595703125,,
1753063451996,,-4.370016574859619,-8.7669677734375
1753063452046,-0.7451952695846558,,
1753063452047,-0.3190273642539978,-4.705204963684082,-7.287351608276367
1753063452096,-1.4299370050430298,-4.709993362426758,-9.504382133483887
1753063452146,-2.93349552154541,,
1753063452147,-1.0420763492584229,-4.949413299560547,-10.648810386657715
1753063452195,-0.9798270463943481,,
1753063452196,,-4.365228176116943,-9.039907455444336
1753063452247,-2.3540987968444824,-4.700416564941406,-10.89301872253418
1753063452296,-1.0133458375930786,-4.087501049041748,-9.317634582519531
1753063452346,-1.6071078777313232,,
1753063452347,-1.5161281824111938,-4.547187805175781,-9.269750595092773
1753063452381,-1.7603367567062378,-4.259883403778076,-8.771756172180176
1753063452429,-1.4586673974990845,,
1753063452430,-1.1186907291412354,-3.536834478378296,-7.651269912719727
1753063452480,-1.0372878313064575,,
1753063452481,-1.4778209924697876,-3.7475242614746094,-8.053496360778809
1753063452530,-1.5783774852752686,-3.757101058959961,-7.244256019592285
1753063452581,-0.5297171473503113,,
1753063452582,,-3.8576574325561523,-7.536348342895508
1753063452676,-2.186504602432251,-5.112219333648682,-8.963293075561523
1753063452725,-2.363675594329834,,
1753063452726,-2.229600429534912,-4.116231441497803,-9.504382133483887
1753063452775,-1.3964180946350098,-4.43705415725708,-9.231443405151367
1753063452826,-1.7651251554489136,,
1753063452827,-2.1577742099761963,-4.523245334625244,-9.178771018981934
1753063452875,-2.1577742099761963,,
1753063452876,,-4.800972938537598,-9.55705451965332
1753063452926,-1.7507599592208862,-3.685275077819824,-8.6089506149292
1753063452975,-1.104325532913208,-4.125808238983154,-8.532336235046387
1753063453028,-2.1960813999176025,-4.068347454071045,-8.881889343261719
1753063453076,-0.9080010056495667,-3.9677908420562744,-8.134899139404297
1753063453126,-1.8273744583129883,,
1753063453127,-1.9231425523757935,-4.604648590087891,-8.929773330688477
1753063453175,-1.8656816482543945,-3.3452982902526855,
1753063453176,,,-7.890690326690674
1753063453226,-1.5017629861831665,-3.9917328357696533,-8.934561729431152
1753063453275,-1.3964180946350098,,
1753063453276,-1.2336124181747437,-5.026028156280518,-8.877100944519043
1753063453326,-1.4347254037857056,-3.7618894577026367,-8.225878715515137
1753063453327,,,-8.877100944519043
1753063453375,-1.7842788696289062,,
1753063453376,,-4.173692226409912,-9.025542259216309
1753063453426,-1.0516531467437744,,
1753063453427,,-4.949413299560547,-9.2841157913208
1753063453475,-1.789067268371582,,
1753063453476,,-4.125808238983154,-8.82442855834961
1753063453527,-1.9806033372879028,-3.8337154388427734,-9.011177062988281
1753063453575,-1.5544354915618896,,
1753063453576,-1.2910733222961426,-4.2742486000061035,-8.623315811157227
1753063453626,-1.3581109046936035,,
1753063453627,,-4.57112979888916,-8.929773330688477
1753063453676,-1.9710265398025513,-3.7714662551879883,
1753063453677,,,-8.441356658935547
1753063453727,-1.4059948921203613,-3.4554316997528076,-7.780557155609131
1753063453775,-1.348534107208252,-4.475361347198486,-8.470087051391602
1753063453826,-1.2336124181747437,,
1753063453827,-1.3868412971496582,-4.245518207550049,-8.230667114257812
1753063453875,-1.9279309511184692,,
1753063453876,-1.6310498714447021,-3.5655648708343506,-8.268974304199219
1753063453926,-1.6502034664154053,,
1753063453927,-2.2822728157043457,-4.2550950050354,-9.413402557373047
1753063453975,-1.544858694076538,,
1753063453976,,-3.8959646224975586,-8.3120698928833
1753063454026,-1.9039889574050903,,
1753063454027,,-3.996521234512329,-9.303269386291504
1753063454075,-1.611896276473999,,
1753063454076,-1.391629695892334,-4.40353536605835,-8.82442855834961
1753063454126,-1.367687702178955,-4.393958568572998,
1753063454127,,,-9.011177062988281
1753063454175,-0.9175778031349182,-3.7475242614746094,-7.814075946807861
1753063454227,-1.2910733222961426,-4.140173435211182,-8.527547836303711
1753063454276,-1.6837223768234253,-5.131372928619385,
1753063454277,,,-9.279327392578125
1753063454326,-1.8656816482543945,,
1753063454327,-1.4012064933776855,-4.111443042755127,-8.972869873046875
1753063454434,-2.631826162338257,,
1753063454435,-2.2918496131896973,-3.8576574325561523,-9.806051254272461
1753063454485,-0.38127660751342773,-3.2207999229431152,-7.3687543869018555
1753063454536,-1.8034324645996094,-4.820126533508301,-9.150040626525879
1753063454586,-1.4730325937271118,,
1753063454587,-0.8026561141014099,-3.426701068878174,-7.0144124031066895
1753063454635,-0.6542156338691711,,
1753063454636,-2.344521999359131,-4.001309394836426,-8.632892608642578
1753063454686,-2.492962598800659,,
1753063454687,-1.4155718088150024,-4.987720489501953,-9.236231803894043
1753063454735,-1.832162857055664,,
1753063454736,-2.205658197402954,-4.365228176116943,-9.882665634155273
1753063454786,-1.7986440658569336,,
1753063454787,,-4.1641154289245605,-8.91540813446045
1753063454835,-1.6166846752166748,,
1753063454836,-2.4163479804992676,-4.207211017608643,-10.591349601745605
1753063454887,-1.932719349861145,-4.595071792602539,-9.365518569946289
1753063454935,-1.9806033372879028,-4.633378982543945,-9.868300437927246
1753063454987,-1.6262614727020264,-4.623802185058594,
1753063454988,,,-8.168417930603027
1753063455035,0.09038111567497253,-4.769848346710205,
1753063455036,,-5.100248336791992,-7.404667377471924
1753063455086,-2.60548996925354,-4.025251388549805,-8.963293075561523
1753063455135,-1.6549919843673706,,
1753063455136,-1.0755951404571533,-3.1944637298583984,-7.859565734863281
1753063455185,-1.4754267930984497,,
1753063455186,,-3.797802448272705,-7.775768756866455
1753063455238,-0.7763199210166931,-4.985326290130615,-7.577049732208252
1753063455286,-0.6613982319831848,-4.140173435211182,-8.113350868225098
1753063455335,-1.8177976608276367,,
1753063455336,-1.5783774852752686,-4.951807498931885,-9.774927139282227
1753063455385,-1.5041571855545044,-4.314949989318848,-8.647257804870605
1753063455386,,,-8.879495620727539
1753063455435,-1.0372878313064575,-4.147356033325195,-8.76457405090332
1753063455488,-1.3964180946350098,-4.774636745452881,
1753063455489,,,-9.315239906311035
1753063455535,-2.030881643295288,,
1753063455536,-1.6789339780807495,-4.700416564941406,-9.559449195861816
1753063455585,-1.4227544069290161,,
1753063455586,-1.3940238952636719,-3.9845502376556396,-8.647257804870605
1753063455635,-1.2072762250900269,,
1753063455636,-1.2982559204101562,-4.092289447784424,-8.151658058166504
1753063455685,-1.63344407081604,,
1753063455686,-1.5280991792678833,-3.998915433883667,-8.395866394042969
1753063455738,-1.4131776094436646,-4.530427932739258,
1753063455739,,,-8.12053394317627
1753063455788,-0.9534908533096313,-4.429871559143066,-7.960122108459473
1753063455789,,,-7.945756912231445
1753063455838,-0.9247604012489319,,
1753063455839,,-4.915894508361816,-8.690353393554688
1753063455888,-1.8896236419677734,-4.109048843383789,-8.268974304199219
1753063455937,-0.838569164276123,,
1753063455938,,-4.281431198120117,-8.474875450134277
1753063455989,-1.4107834100723267,-5.0499701499938965,-8.790909767150879
1753063456039,-1.1426327228546143,-4.860827922821045,-9.334393501281738
1753063456088,-1.5735890865325928,,
1753063456089,,-4.489726543426514,-9.461286544799805
1753063456138,-2.188898801803589,,
1753063456139,,-1.7220295667648315,-5.1996073722839355
1753063456188,0.20530278980731964,,
1753063456189,-1.0133458375930786,-9.97484302520752,-16.12434959411621
1753063456238,-4.123414039611816,,
1753063456239,3.2387564182281494,-5.993285179138184,-3.1669301986694336
1753063456289,9.255385398864746,-2.1697452068328857,-9.600150108337402
1753063456338,-5.887940406799316,,
1753063456339,4.112639904022217,-11.540650367736816,-15.034988403320312
1753063456389,-0.4626794755458832,2.3529016971588135,-1.6298527717590332
1753063456440,-3.883993625640869,-4.262277603149414,-9.387065887451172
1753063456488,-2.9933507442474365,,
1753063456489,2.6665420532226562,-5.265448093414307,-9.41100788116455
1753063456539,-0.42676645517349243,-3.139396905899048,-4.622604846954346
1753063456590,-1.2216414213180542,,
1753063456591,-1.0708067417144775,-5.030816555023193,-9.140463829040527
1753063456636,-1.7220295667648315,-3.3931822776794434,-7.13891077041626
1753063456686,-0.4818331003189087,-4.547187805175781,-8.297704696655273
1753063456736,-1.3820528984069824,,
1753063456737,-2.0715830326080322,-4.288613796234131,-8.3120698928833
1753063456785,0.06883329898118973,,
1753063456786,,-3.359663486480713,-7.80449914932251
1753063456836,-2.2679076194763184,,
1753063456837,-1.324592113494873,-5.7107696533203125,-11.352705955505371
1753063456886,-1.7076643705368042,-4.619013786315918,-9.911396026611328
1753063456938,-1.932719349861145,,
1753063456939,,-4.432265758514404,-9.743802070617676
1753063456985,-0.9798270463943481,,
1753063456986,-0.884058952331543,-4.250306606292725,
1753063456987,,,-8.623315811157227
1753063457036,-1.4873977899551392,,
1753063457037,-1.7172411680221558,-4.987720489501953,-9.547477722167969
1753063457086,-0.055665191262960434,-5.021239280700684,-7.842806339263916
1753063457136,-1.2767080068588257,,
1753063457137,-2.3493103981018066,,
1753063457138,,-2.4211363792419434,-7.292140007019043
1753063457185,-1.5257049798965454,,
1753063457186,,-4.264671802520752,-8.446145057678223
1753063457237,-1.0851719379425049,-4.432265758514404,-7.842806339263916
1753063457286,-2.0428526401519775,,
1753063457287,-1.9853917360305786,-4.173692226409912,-8.877100944519043
1753063457336,-0.9510966539382935,,
1753063457337,,-4.408323764801025,-8.671199798583984
1753063457385,-1.1665748357772827,,
1753063457386,-1.568800687789917,-4.389170169830322,-8.992023468017578
1753063457436,-1.731606364250183,,
1753063457437,-1.3724761009216309,-4.839280128479004,-9.044695854187012
1753063457486,-0.9989806413650513,-4.4705729484558105,-8.417414665222168
1753063457536,-1.6214730739593506,-4.259883403778076,-9.327211380004883
1753063457585,-1.2767080068588257,-4.561553001403809,-8.934561729431152
1753063457636,-1.449090600013733,-4.666897773742676,-9.18355941772461
1753063457685,-1.0229226350784302,,
1753063457686,-1.0085574388504028,,
1753063457687,,-4.092289447784424,-8.249820709228516
1753063457737,-1.2384008169174194,,
1753063457738,,-4.370016574859619,-8.905831336975098
1753063457786,-1.4012064933776855,-4.413112163543701,-8.484452247619629
1753063457836,-1.080383539199829,-4.235941410064697,-8.49402904510498
1753063457885,-1.4586673974990845,-4.039616584777832,-7.852383136749268
1753063457936,-0.7164648771286011,-4.049193859100342,-8.039131164550781
1753063457985,-1.3198037147521973,-4.84406852722168,-9.188347816467285
1753063458036,-0.960673451423645,-3.886387825012207,-7.92899751663208
1753063458085,-1.492186188697815,-4.211999416351318,-9.111733436584473
1753063458136,-1.7220295667648315,-4.432265758514404,-8.637681007385254
1753063458185,-1.6597803831100464,,
1753063458186,,-4.216787815093994,-8.652046203613281
1753063458236,-1.003769040107727,,
1753063458237,,-4.633378982543945,-9.154829025268555
1753063458286,-1.4538789987564087,-3.599083662033081,-8.177994728088379
1753063458337,-1.4107834100723267,-4.140173435211182,-9.011177062988281
1753063458387,-1.468244194984436,-3.8576574325561523,-8.072649955749512
1753063458436,-1.003769040107727,,
1753063458437,,-4.063559055328369,-8.364742279052734
1753063458485,-1.544858694076538,,
1753063458486,-1.6980875730514526,-4.374804973602295,-9.015965461730957
1753063458536,-1.8273744583129883,,
1753063458537,-2.076371431350708,-3.5942952632904053,-9.150040626525879
1753063458585,-2.7515363693237305,,
1753063458586,-1.9231425523757935,-3.1250317096710205,-9.121310234069824
1753063458636,-1.0324994325637817,,
1753063458637,-1.4634557962417603,-3.90554141998291,-8.422203063964844
1753063458685,-1.71245276927948,,
1753063458686,,-4.480149745941162,-9.25059700012207
1753063458736,-2.4211363792419434,,
1753063458737,,-4.250306606292725,-10.241796493530273
1753063458785,-1.8034324645996094,,
1753063458786,,-3.819350242614746,-9.087791442871094
1753063458836,-1.8704700469970703,,
1753063458837,-1.8177976608276367,-3.4793736934661865,-8.589797019958496
1753063458886,-1.511339783668518,,
1753063458887,,-3.7235822677612305,-8.417414665222168
1753063458936,-1.932719349861145,,
1753063458937,,-3.8049850463867188,-8.743025779724121
1753063458985,-1.9087773561477661,,
1753063458986,-1.511339783668518,-4.0970778465271,-8.89146614074707
1753063459036,-1.4155718088150024,,
1753063459037,-2.1481974124908447,-3.5942952632904053,-8.393472671508789
1753063459106,-1.8608932495117188,-3.5847184658050537,-8.886677742004395
1753063459154,-2.3684639930725098,-3.512892484664917,-9.528324127197266
1753063459202,-2.167351007461548,,
1753063459203,-2.1912930011749268,,
1753063459206,,-3.493738889694214,-8.757390975952148
1753063459253,-1.9901801347732544,,
1753063459254,,-3.795408248901367,-9.083003044128418
1753063459302,-1.7747019529342651,,
1753063459303,-2.009333848953247,-4.532822132110596,-9.959280967712402
1753063459353,-2.497750997543335,-3.1968579292297363,-8.771756172180176
1753063459402,-1.5975310802459717,-4.0970778465271,-10.011953353881836
1753063459453,-3.177704095840454,,
1753063459454,,-3.4745852947235107,-9.537900924682617
1753063459503,-0.01735796220600605,-3.053205728530884,-7.61296272277832
1753063459553,-3.230376720428467,-3.508104085922241,-10.52910041809082
1753063459602,-1.7651251554489136,,
1753063459603,,-4.197634220123291,-9.15961742401123
1753063459653,-1.8896236419677734,-2.919130325317383,-8.21151351928711
1753063459702,-2.1481974124908447,-3.7906198501586914,-10.059837341308594
1753063459753,-2.3971943855285645,-3.268683910369873,-8.393472671508789
1753063459802,-1.4299370050430298,-3.273472309112549,
1753063459803,,,-8.331223487854004
1753063459853,-2.0189106464385986,,
1753063459854,,-3.8528690338134766,-8.862735748291016
1753063459902,-2.0667946338653564,-2.981379747390747,-8.249820709228516
1753063459953,-1.4873977899551392,-3.795408248901367,-9.049484252929688
1753063460002,-2.076371431350708,-4.087501049041748,-8.905831336975098
1753063460053,-1.1378443241119385,-2.80899715423584,-7.416638374328613
1753063460102,-2.181716203689575,,
1753063460103,,-4.288613796234131,-10.414178848266602
1753063460153,-1.7507599592208862,-4.504091739654541,
1753063460154,,,-8.33601188659668
1753063460202,-2.6174609661102295,,
1753063460203,-2.957437753677368,-3.776254653930664,-9.968857765197754
1753063460253,-2.406771183013916,,
1753063460254,-1.9039889574050903,-4.374804973602295,-9.777320861816406
1753063460302,-1.3437457084655762,,
1753063460303,-1.669357180595398,-3.5176808834075928,-8.85794734954834
1753063460353,-2.5073277950286865,,
1753063460354,,-3.5416228771209717,-9.46607494354248
1753063460402,-1.7220295667648315,,
1753063460403,,-3.2638955116271973,-7.770980358123779
1753063460453,-1.3198037147521973,,
1753063460454,,-3.9390604496002197,-9.073426246643066
1753063460502,-2.2870612144470215,,
1753063460503,,-4.053982257843018,-9.231443405151367
1753063460553,-1.5400702953338623,,
1753063460554,-2.0236990451812744,-3.3740286827087402,-8.039131164550781
1753063460602,-1.6214730739593506,,
1753063460603,-2.138620615005493,-3.6709096431732178,-8.168417930603027
1753063460653,-2.057217836380005,,
1753063460654,,-4.106654644012451,-9.470863342285156
1753063460702,-1.6789339780807495,,
1753063460703,-1.592742681503296,-4.183269023895264,-9.1260986328125
1753063460753,-1.8273744583129883,,
1753063460754,,-3.599083662033081,-8.9249849319458
1753063460802,-0.8457517623901367,,
1753063460803,,-3.90554141998291,-8.9249849319458
1753063460853,-2.847304344177246,-4.475361347198486,
1753063460854,,-4.2742486000061035,-10.074202537536621
1753063460903,-1.8896236419677734,-3.5895068645477295,-8.776544570922852
1753063460953,-1.975814938545227,-3.072359323501587,
1753063460954,,,-8.599373817443848
1753063461003,-1.7172411680221558,,
1753063461004,-1.5592238903045654,-4.216787815093994,
1753063461005,,,-8.958504676818848
1753063461053,-1.468244194984436,-4.058770656585693,-8.838793754577637
1753063461102,-1.8177976608276367,,
1753063461103,-2.0620062351226807,-3.7666778564453125,-9.020753860473633
1753063461153,-2.3110032081604004,,
1753063461154,,-2.962226152420044,-7.866748332977295
1753063461202,-2.162562608718872,,
1753063461203,,-3.8768110275268555,-9.652822494506836
1753063461253,-1.7938556671142578,,
1753063461254,-0.9367313981056213,-3.7666778564453125,
1753063461255,,,-7.680000305175781
1753063461302,-1.3581109046936035,,
1753063461303,-2.210446834564209,-4.001309394836426,-9.59057331085205
1753063461353,-1.8704700469970703,-4.523245334625244,
1753063461354,,,-8.359953880310059
1753063461402,-0.6302735805511475,,
1753063461403,,-3.09151291847229,-7.708730697631836
1753063461453,-1.6645687818527222,-5.083488941192627,
1753063461454,,,-9.504382133483887
1753063461503,-0.1562216579914093,-5.351639270782471,-8.110957145690918
1753063461553,-1.592742681503296,-4.978143692016602,
1753063461554,,-5.10264253616333,-9.178771018981934
1753063461602,-2.033275842666626,-3.8815994262695312,
1753063461603,,,-8.690353393554688
1753063461653,-0.9989806413650513,,
1753063461654,,-3.493738889694214,-7.981669902801514
1753063461703,-1.4299370050430298,-4.432265758514404,-8.379107475280762
1753063461753,-0.6015431880950928,-4.6285905838012695,
1753063461754,,-5.840056419372559,-7.407061576843262
1753063461802,-2.4019827842712402,,
1753063461803,,-3.7283706665039062,-8.61852741241455
1753063461853,-2.138620615005493,,
1753063461854,,-4.8488569259643555,-9.121310234069824
1753063461902,-3.795408248901367,,
1753063461903,-1.8177976608276367,-4.211999416351318,-9.576208114624023
1753063461953,0.6099228858947754,-4.705204963684082,
1753063461954,,,-7.004835605621338
1753063462002,-1.3820528984069824,,
1753063462003,,-5.854421615600586,-10.572196006774902
1753063462053,-2.296638011932373,,
1753063462054,,-4.044404983520508,-8.27855110168457
1753063462102,-1.5783774852752686,,
1753063462103,-1.8034324645996094,-3.824138641357422,-8.000823974609375
1753063462153,-1.8656816482543945,,
1753063462154,,-4.911106109619141,-9.92097282409668
1753063462202,-0.5009866952896118,,
1753063462203,,-5.433042049407959,-9.384672164916992
1753063462253,-1.9518729448318481,,
1753063462254,,-3.096301317214966,-7.545925140380859
1753063462302,-0.74040687084198,,
1753063462303,,-3.2782607078552246,-7.8092875480651855
1753063462353,-1.9806033372879028,-6.112995624542236,
1753063462354,,-6.6828155517578125,-10.179547309875488
1753063462402,-1.7268179655075073,-3.7858314514160156,
1753063462403,,-4.116231441497803,-7.905055522918701
1753063462453,-1.2096704244613647,-3.9199066162109375,-8.49402904510498
1753063462454,,,-8.73344898223877
1753063462503,-2.4019827842712402,-4.815338134765625,-10.34714126586914
1753063462553,-0.20889410376548767,,
1753063462554,,-4.686051368713379,-7.598597526550293
1753063462602,-0.8457517623901367,-4.480149745941162,-9.15961742401123
1753063462603,,,-9.145252227783203
1753063462653,-2.3780407905578613,,
1753063462654,,-3.843292236328125,-9.049484252929688
1753063462702,-0.10833762586116791,,
1753063462703,-0.46746787428855896,-4.0300397872924805,-6.985682010650635
1753063462753,-1.7507599592208862,,
1753063462754,,-4.460996150970459,-9.370306968688965
1753063462802,-0.5680243372917175,,
1753063462803,,-4.609436988830566,-7.033565998077393
1753063462853,-0.13706804811954498,-3.5224692821502686,
1753063462854,,,-8.101380348205566
1753063462902,-1.3772644996643066,,
1753063462903,-1.2336124181747437,-4.820126533508301,-9.164405822753906
1753063462953,-1.425148606300354,-4.106654644012451,
1753063462954,,-4.168903827667236,-9.059061050415039
1753063463002,-1.3581109046936035,-4.116231441497803,
1753063463003,,-4.499303340911865,-8.680776596069336
1753063463053,-0.9175778031349182,,
1753063463054,,-4.6285905838012695,-9.422979354858398
1753063463102,-1.5831658840179443,-4.78660774230957,
1753063463103,,,-9.5809965133667
1753063463153,-1.2384008169174194,-4.336497783660889,
1753063463154,,-4.173692226409912,-8.91540813446045
1753063463202,-1.3293805122375488,-3.795408248901367,-7.737461566925049
1753063463203,,,-8.51797103881836
1753063463253,-1.14742112159729,-3.9821560382843018,-8.73344898223877
1753063463302,-0.8505401611328125,,
1753063463303,,-4.647744178771973,-8.316858291625977
1753063463353,-1.1234791278839111,-4.638167381286621,
1753063463354,,,-8.470087051391602
1753063463402,-1.0372878313064575,,
1753063463403,,-4.235941410064697,-8.225878715515137
1753063463453,-0.960673451423645,,
1753063463454,,-2.9957449436187744,-7.316082000732422
1753063463502,-1.9662381410598755,,
1753063463503,-1.4538789987564087,-4.508880138397217,-9.504382133483887
1753063463553,-1.468244194984436,,
1753063463554,,-3.00053334236145,-7.636904716491699
1753063463602,-1.7842788696289062,,
1753063463603,,-3.838503837585449,-8.910619735717773
1753063463653,-1.6549919843673706,-4.777030944824219,
1753063463654,,-5.270236492156982,-9.1260986328125
1753063463703,-1.324592113494873,-4.202422618865967,-8.474875450134277
1753063463753,-0.8792705535888672,-5.7538652420043945,
1753063463754,,-5.3995232582092285,-9.729436874389648
1753063463802,-0.9367313981056213,,
1753063463803,,-5.054758548736572,-8.862735748291016
1753063463853,-0.8457517623901367,,
1753063463854,-0.3621230125427246,-4.954201698303223,-7.512406349182129
1753063463902,-0.7691373229026794,,
1753063463903,-1.7651251554489136,-4.834491729736328,-8.70950698852539
1753063463953,-1.789067268371582,-4.987720489501953,
1753063463954,,,-8.589797019958496
1753063464002,-0.67815762758255,-4.954201698303223,
1753063464003,,,-8.848370552062988
1753063464053,-1.003769040107727,-5.1361613273620605,
1753063464054,,,-7.80449914932251
1753063464103,-0.02214636653661728,-4.767454147338867,-8.36953067779541
1753063464153,-2.406771183013916,,
1753063464154,,-5.945401191711426,-10.423755645751953
1753063464202,-1.568800687789917,,
1753063464203,,-4.762665748596191,-10.337564468383789
1753063464253,-1.9806033372879028,-4.001309394836426,
1753063464254,,,-8.939350128173828
1753063464302,1.2228385210037231,-6.036381244659424,-8.747814178466797
1753063464303,,,-6.324882507324219
1753063464353,-2.3110032081604004,,
1753063464354,-2.124255418777466,-4.149750232696533,-8.019977569580078
1753063464402,-0.07960720360279083,-4.144961833953857,
1753063464403,,,-6.023212909698486
1753063464453,-0.7164648771286011,,
1753063464454,,-4.834491729736328,-9.226655006408691
1753063464502,-0.5776011347770691,,
1753063464503,,-4.868010520935059,-7.038354396820068
1753063464553,-0.06524199992418289,,
1753063464554,,-4.6285905838012695,-7.526771545410156
1753063464602,-1.1713632345199585,,
1753063464603,,-5.562329292297363,-9.121310234069824
1753063464653,-0.6111199855804443,,
1753063464654,,-4.657320976257324,-7.416638374328613
1753063464702,-0.9654618501663208,,
1753063464703,-1.4012064933776855,-5.131372928619385,-8.9249849319458
1753063464753,-1.5400702953338623,-4.575918197631836,
1753063464754,,,-8.776544570922852
1753063464802,-1.1139023303985596,,
1753063464803,,-5.495291233062744,-9.269750595092773
1753063464853,-1.391629695892334,-5.045181751251221,
1753063464854,,,-8.652046203613281
1753063464903,-0.5632359385490417,,
1753063464904,,-5.342062473297119,-8.125322341918945
1753063464953,-0.6111199855804443,,
1753063464954,-0.9846154451370239,-4.982932090759277,-8.316858291625977
1753063465003,-0.8505401611328125,-5.2031989097595215,-8.216301918029785
1753063465053,-0.8984242081642151,,
1753063465054,,-4.508880138397217,-7.976881504058838
1753063465102,-1.1091139316558838,,
1753063465103,-0.960673451423645,-4.858433723449707,-8.273762702941895
1753063465153,-0.9702502489089966,,
1753063465154,-1.1330559253692627,-5.346850872039795,-8.91540813446045
1753063465202,-1.6932991743087769,,
1753063465203,,-4.432265758514404,-8.197148323059082
1753063465253,-0.5009866952896118,,
1753063465254,,-5.734711647033691,-9.202713012695312
1753063465302,-0.9846154451370239,,
1753063465303,-1.30543851852417,-4.75308895111084,-8.666411399841309
1753063465353,-1.4969745874404907,,
1753063465354,,-5.28460168838501,-8.647257804870605
1753063465402,-1.1857284307479858,,
1753063465403,,-4.417900562286377,-8.379107475280762
1753063465454,-1.1761516332626343,-4.954201698303223,-8.666411399841309
1753063465503,-0.6685808300971985,-4.762665748596191,-8.374319076538086
1753063465553,-1.5735890865325928,-4.6956281661987305,
1753063465554,,,-8.326435089111328
1753063465602,-0.7691373229026794,,
1753063465603,-1.1953052282333374,-5.016450881958008,-8.393472671508789
1753063465653,-1.3102269172668457,-5.28460168838501,
1753063465654,,-4.824914932250977,-9.164405822753906
1753063465702,-1.1953052282333374,,
1753063465703,-1.0708067417144775,-5.0020856857299805,-8.671199798583984
1753063465753,-0.8265981078147888,,
1753063465754,,-4.777030944824219,-8.173206329345703
1753063465802,-0.9367313981056213,,
1753063465803,-0.8888474106788635,-5.016450881958008,-8.259397506713867
1753063465871,-0.9032126069068909,,
1753063465872,,-5.322908878326416,-8.522759437561035
1753063465877,-0.8888474106788635,-5.1601033210754395,-8.230667114257812
1753063465923,-0.6254851818084717,,
1753063465924,,-5.10264253616333,-8.087015151977539
1753063465974,-0.8792705535888672,,
1753063465975,-0.6637924313545227,-5.155314922332764,-7.857171535491943
1753063466023,-0.7595604658126831,-4.671686172485352,-7.861959934234619
1753063466024,,,-8.039131164550781
1753063466074,-0.8361749649047852,-5.461772441864014,-8.431779861450195
1753063466123,-0.9175778031349182,,
1753063466124,,-5.677250862121582,-8.556278228759766
1753063466174,-0.7499836683273315,,
1753063466175,,-5.31812047958374,-8.33601188659668
1753063466223,-0.7356184720993042,,
1753063466224,,-5.145738124847412,-7.9625163078308105
1753063466274,-0.7739257216453552,,
1753063466275,,-5.035604953765869,-8.326435089111328
1753063466323,-1.0229226350784302,,
1753063466324,,-5.150526523590088,-8.177994728088379
1753063466374,-0.7308300733566284,,
1753063466375,-0.40521863102912903,-5.385158061981201,-8.326435089111328
1753063466423,-0.821809709072113,,
1753063466424,,-5.72513484954834,-8.963293075561523
1753063466474,-1.0324994325637817,,
1753063466475,,-5.279813289642334,-8.010400772094727
1753063466523,-0.20889410376548767,-6.1752448081970215,
1753063466524,,,-8.805274963378906
1753063466574,-0.8361749649047852,,
1753063466575,,-5.524022102355957,-8.288127899169922
1753063466623,-0.9750386476516724,-5.279813289642334,-7.909843921661377
1753063466675,-0.12749123573303223,-5.773018836975098,-8.570643424987793
1753063466723,-1.324592113494873,-4.9350481033325195,
1753063466724,,-4.987720489501953,-8.680776596069336
1753063466774,-1.1665748357772827,-5.217564105987549,-8.479663848876953
1753063466823,-0.5536591410636902,-5.691616058349609,
1753063466824,,-5.0499701499938965,-8.901042938232422
1753063466874,-1.8082208633422852,-4.906317710876465,
1753063466875,,-5.021239280700684,-8.652046203613281
1753063466923,-0.5728127360343933,-5.75865364074707,
1753063466924,,-5.562329292297363,-8.441356658935547
1753063466975,-0.7835025191307068,-5.380369663238525,-8.489240646362305
1753063467024,-0.9750386476516724,-5.121796131134033,-8.70950698852539
1753063467074,-1.348534107208252,-4.915894508361816,-8.790909767150879
1753063467123,-1.4730325937271118,-4.422688961029053,-8.264185905456543
1753063467174,-1.391629695892334,,
1753063467175,,-3.848080635070801,-7.952939510345459
1753063467223,-1.4634557962417603,,
1753063467224,-1.4155718088150024,-4.642955780029297,-8.757390975952148
1753063467274,-1.3820528984069824,-4.911106109619141,-8.64246940612793
1753063467323,-1.9087773561477661,-4.949413299560547,-9.427767753601074
1753063467324,,,-9.499593734741211
1753063467374,-1.3150153160095215,-4.9350481033325195,
1753063467375,,,-8.877100944519043
1753063467423,-1.3006501197814941,-4.446630954742432,-8.383895874023438
1753063467474,-1.3581109046936035,-4.590283393859863,
1753063467475,,-4.370016574859619,-8.853158950805664
1753063467523,-1.6071078777313232,-4.5423994064331055,-8.235455513000488
1753063467575,-1.449090600013733,-4.824914932250977,-8.862735748291016
1753063467623,-1.1426327228546143,,
1753063467624,-1.324592113494873,-5.026028156280518,-8.862735748291016
1753063467674,-1.6741455793380737,-4.78660774230957,
1753063467675,,-4.824914932250977,-8.599373817443848
1753063467723,-1.0899603366851807,-4.78660774230957,
1753063467724,,,-8.388684272766113
1753063467774,-0.8026561141014099,,
1753063467775,-0.8026561141014099,-5.207987308502197,-8.216301918029785
1753063467824,-1.0851719379425049,-4.920682907104492,-8.441356658935547
1753063467873,-1.3389573097229004,,
1753063467874,,-5.126584529876709,-9.226655006408691
1753063467924,-1.2671312093734741,-5.236717700958252,-9.504382133483887
1753063467973,-2.033275842666626,-4.264671802520752,-9.130887031555176
1753063467974,,,-9.145252227783203
1753063468024,-2.02848744392395,-3.9246952533721924,-9.00160026550293
1753063468073,-1.5400702953338623,,
1753063468074,,-3.508104085922241,-7.905055522918701
1753063468125,-1.8800468444824219,-4.144961833953857,-8.790909767150879
1753063468173,-1.8177976608276367,-3.268683910369873,
1753063468174,,,-7.814075946807861
1753063468224,-1.2814964056015015,-4.068347454071045,-8.790909767150879
1753063468273,-1.813009262084961,-4.087501049041748,-8.704718589782715
1753063468324,-1.5304933786392212,-3.848080635070801,-8.637681007385254
1753063468373,-1.1953052282333374,-3.5511996746063232,-8.474875450134277
1753063468424,-2.2487540245056152,-3.536834478378296,-9.403825759887695
1753063468473,-1.449090600013733,-3.8049850463867188,
1753063468474,,,-9.006388664245605
1753063468524,-1.6023194789886475,,
1753063468525,,-3.5847184658050537,-9.173982620239258
1753063468573,-2.2008697986602783,-2.8137855529785156,-8.80048656463623
1753063468624,-1.8704700469970703,-2.8329391479492188,-8.963293075561523
1753063468673,-2.009333848953247,-2.7898435592651367,-9.15961742401123
1753063468725,-1.7651251554489136,-2.5935189723968506,-8.537124633789062
1753063468773,-1.9662381410598755,,
1753063468774,-2.430713176727295,-3.642179250717163,-10.327987670898438
1753063468824,-2.2008697986602783,-3.7235822677612305,-9.954492568969727
1753063468873,-2.081159830093384,-3.1968579292297363,-10.150816917419434
1753063468924,-2.6557681560516357,-2.4402899742126465,-9.384672164916992
1753063468973,-2.057217836380005,-2.1529858112335205,
1753063468974,,,-8.881889343261719
1753063469024,-1.9279309511184692,-1.3628993034362793,-8.024765968322754
